trialNum,runs.thisRepN,runs.thisTrialN,runs.thisN,runs.thisIndex,feat_face_loop.thisRepN,feat_face_loop.thisTrialN,feat_face_loop.thisN,feat_face_loop.thisIndex,conf_haus_loop.thisRepN,conf_haus_loop.thisTrialN,conf_haus_loop.thisN,conf_haus_loop.thisIndex,conf_face_loop.thisRepN,conf_face_loop.thisTrialN,conf_face_loop.thisN,conf_face_loop.thisIndex,feat_haus_loop.thisRepN,feat_haus_loop.thisTrialN,feat_haus_loop.thisN,feat_haus_loop.thisIndex,face_instructions.started,face_instructions.stopped,start_exp_press.keys,start_exp_press.rt,start_exp_press.started,start_exp_press.stopped,target_image1.started,target_image1.stopped,ISI_1.started,ISI_1.stopped,probe_image1.started,probe_image1.stopped,key_resp1.keys,key_resp1.corr,key_resp1.rt,key_resp1.started,key_resp1.stopped,haus_instructions.started,haus_instructions.stopped,start_run2.keys,start_run2.rt,start_run2.started,start_run2.stopped,target_image2.started,target_image2.stopped,probe_image2.started,probe_image2.stopped,ISI_2.started,ISI_2.stopped,key_resp2.keys,key_resp2.corr,key_resp2.rt,key_resp2.started,key_resp2.stopped,target_image3.started,target_image3.stopped,probe_image3.started,probe_image3.stopped,ISI_3.started,ISI_3.stopped,key_resp3.keys,key_resp3.corr,key_resp3.rt,key_resp3.started,key_resp3.stopped,target_image4.started,target_image4.stopped,probe_image4.started,probe_image4.stopped,ISI_4.started,ISI_4.stopped,key_resp4.keys,key_resp4.corr,key_resp4.rt,key_resp4.started,key_resp4.stopped,participant,session,date,expName,psychopyVersion,frameRate,
0,0,0,0,0,0,0,0,0,,,,,,,,,,,,,15.653214090998517,None,space,1.3793949370156042,15.653214090998517,None,17.09710173800704,17.60271794901928,0.1997356473293621,0.4997356473293621,17.60271794901928,17.80733508701087,s,0,0.5187039730080869,17.755666384997312,None,,,,,,,,,,,,,,,,,,,,,,,,,,,,,,,,,,,,,,,,rer,001,2020_Sep_21_2335,config_feat_task,2020.2.4,None,
1,0,0,0,0,0,1,1,1,,,,,,,,,,,,,,,,,,,18.305006668000715,18.507754962018225,0.19967056464520283,0.4996705646452028,18.82198638000409,19.022192271018866,d,0,0.21459235501242802,18.98902489800821,None,,,,,,,,,,,,,,,,,,,,,,,,,,,,,,,,,,,,,,,,rer,001,2020_Sep_21_2335,config_feat_task,2020.2.4,None,
2,0,0,0,0,0,2,2,2,,,,,,,,,,,,,,,,,,,19.22207075401093,19.42388511201716,0.20170636067632586,0.5017063606763259,19.752463370998157,19.95595444200444,s,0,0.45590998901752755,19.907666322018486,None,,,,,,,,,,,,,,,,,,,,,,,,,,,,,,,,,,,,,,,,rer,001,2020_Sep_21_2335,config_feat_task,2020.2.4,None,
3,0,0,0,0,0,3,3,3,,,,,,,,,,,,,,,,,,,20.388684570003534,20.591937059012707,0.20340065265190788,0.5034006526519079,20.905478016997222,21.107772322022356,d,0,0.3043627209844999,21.074301504006144,None,,,,,,,,,,,,,,,,,,,,,,,,,,,,,,,,,,,,,,,,rer,001,2020_Sep_21_2335,config_feat_task,2020.2.4,None,
4,0,0,0,0,0,4,4,4,,,,,,,,,,,,,,,,,,,21.40576601002249,21.605886989011196,0.20316143467789516,0.5031614346778952,21.9221439009998,22.12424193500192,d,0,0.5120836840069387,22.090990614000475,None,,,,,,,,,,,,,,,,,,,,,,,,,,,,,,,,,,,,,,,,rer,001,2020_Sep_21_2335,config_feat_task,2020.2.4,None,
5,0,0,0,0,0,5,5,5,,,,,,,,,,,,,,,,,,,22.6216830490157,22.822575030004373,0.20373121765442193,0.503731217654422,23.138738492998527,23.341053558018757,s,0,0.3036797360109631,23.307936340017477,None,,,,,,,,,,,,,,,,,,,,,,,,,,,,,,,,,,,,,,,,rer,001,2020_Sep_21_2335,config_feat_task,2020.2.4,None,
6,0,0,0,0,0,6,6,6,,,,,,,,,,,,,,,,,,,23.63873967100517,23.841065092012286,0.21635546366451308,0.5163554636645131,24.172192351019476,24.372659083019244,s,0,0.561630691983737,24.33851578901522,None,,,,,,,,,,,,,,,,,,,,,,,,,,,,,,,,,,,,,,,,rer,001,2020_Sep_21_2335,config_feat_task,2020.2.4,None,
7,0,0,0,0,0,7,7,7,,,,,,,,,,,,,,,,,,,24.922375533002196,25.122669274016516,0.20378001566859894,0.503780015668599,25.438865025003906,25.639503821003018,d,0,0.28240014100447297,25.605970713018905,None,,,,,,,,,,,,,,,,,,,,,,,,,,,,,,,,,,,,,,,,rer,001,2020_Sep_21_2335,config_feat_task,2020.2.4,None,
8,0,0,0,0,0,8,8,8,,,,,,,,,,,,,,,,,,,25.905885183019564,26.106011090014363,0.2043810576433316,0.5043810576433316,26.435521188017447,26.641101690009236,s,0,0.4730276199989021,26.589275207021274,None,,,,,,,,,,,,,,,,,,,,,,,,,,,,,,,,,,,,,,,,rer,001,2020_Sep_21_2335,config_feat_task,2020.2.4,None,
9,0,0,0,0,0,9,9,9,,,,,,,,,,,,,,,,,,,27.088722842017887,27.289413872000296,0.2006757456692867,0.5006757456692867,27.605595130007714,27.80601636102074,d,0,0.24182704399572685,27.77276959500159,None,,,,,,,,,,,,,,,,,,,,,,,,,,,,,,,,,,,,,,,,rer,001,2020_Sep_21_2335,config_feat_task,2020.2.4,None,
10,0,0,0,0,0,10,10,10,,,,,,,,,,,,,,,,,,,28.03854775399668,28.23933754200698,0.2007372786756605,0.5007372786756605,28.55564777800464,28.757800546998624,s,0,0.47088800198980607,28.739260823000222,None,,,,,,,,,,,,,,,,,,,,,,,,,,,,,,,,,,,,,,,,rer,001,2020_Sep_21_2335,config_feat_task,2020.2.4,None,
11,0,0,0,0,0,11,11,11,,,,,,,,,,,,,,,,,,,29.238903878023848,29.439313178008888,0.20025347368209623,0.5002534736820963,29.755622523021884,29.956038661010098,d,0,0.4402394250209909,29.922691531013697,None,,,,,,,,,,,,,,,,,,,,,,,,,,,,,,,,,,,,,,,,rer,001,2020_Sep_21_2335,config_feat_task,2020.2.4,None,
12,0,0,0,0,0,12,12,12,,,,,,,,,,,,,,,,,,,30.388673613022547,30.591135096008657,0.21680846766685136,0.5168084676668514,30.92225145699922,31.124354140018113,s,0,0.38459979300387204,31.07272299201577,None,,,,,,,,,,,,,,,,,,,,,,,,,,,,,,,,,,,,,,,,rer,001,2020_Sep_21_2335,config_feat_task,2020.2.4,None,
13,0,0,0,0,0,13,13,13,,,,,,,,,,,,,,,,,,,31.471725562005304,31.67275117401732,0.201561389665585,0.5015613896655851,31.98883262902382,32.18930917402031,d,0,0.2911401239980478,32.15787409301265,None,,,,,,,,,,,,,,,,,,,,,,,,,,,,,,,,,,,,,,,,rer,001,2020_Sep_21_2335,config_feat_task,2020.2.4,None,
14,0,0,0,0,0,14,14,14,,,,,,,,,,,,,,,,,,,32.472557597997366,32.67455463600345,0.2023610986652784,0.5023610986652784,33.002766513003735,33.20612858500681,s,0,0.5779223669960629,33.15811493701767,None,,,,,,,,,,,,,,,,,,,,,,,,,,,,,,,,,,,,,,,,rer,001,2020_Sep_21_2335,config_feat_task,2020.2.4,None,
15,0,0,0,0,0,15,15,15,,,,,,,,,,,,,,,,,,,33.75586648701574,33.9560205390153,0.20398738168296404,0.5039873816829641,34.272309774009045,34.47237153002061,d,0,0.35894355399068445,34.43932185601443,None,,,,,,,,,,,,,,,,,,,,,,,,,,,,,,,,,,,,,,,,rer,001,2020_Sep_21_2335,config_feat_task,2020.2.4,None,
16,0,0,0,0,0,16,16,16,,,,,,,,,,,,,,,,,,,34.82211801101221,35.02251918299589,0.2024684416828677,0.5024684416828678,35.338640404021135,35.53922844200861,s,0,0.32783272000961006,35.50587440101663,None,,,,,,,,,,,,,,,,,,,,,,,,,,,,,,,,,,,,,,,,rer,001,2020_Sep_21_2335,config_feat_task,2020.2.4,None,
17,0,0,0,0,0,17,17,17,,,,,,,,,,,,,,,,,,,35.85597046001931,36.05594069400104,0.20594823668943718,0.5059482366894372,36.37211387700518,36.57225035200827,s,0,0.6556901180010755,36.53917477000505,None,,,,,,,,,,,,,,,,,,,,,,,,,,,,,,,,,,,,,,,,rer,001,2020_Sep_21_2335,config_feat_task,2020.2.4,None,
18,0,0,0,0,0,18,18,18,,,,,,,,,,,,,,,,,,,37.22258441802114,37.42244965600548,0.204732177691767,0.504732177691767,37.75281578602153,37.95592311501969,d,0,0.381653078016825,37.90772014702088,None,,,,,,,,,,,,,,,,,,,,,,,,,,,,,,,,,,,,,,,,rer,001,2020_Sep_21_2335,config_feat_task,2020.2.4,None,
19,0,0,0,0,0,19,19,19,,,,,,,,,,,,,,,,,,,38.30574714200338,38.50581902801059,0.20435711366008036,0.5043571136600804,38.82203208102146,39.02440602201386,s,0,0.3377560279914178,38.99105905400938,None,,,,,,,,,,,,,,,,,,,,,,,,,,,,,,,,,,,,,,,,rer,001,2020_Sep_21_2335,config_feat_task,2020.2.4,None,
20,0,0,0,0,0,20,20,20,,,,,,,,,,,,,,,,,,,39.3553459700197,39.5559070300078,0.20106170963845216,0.5010617096384522,39.87203228301951,40.07269991200883,s,0,0.636779190012021,40.03933532501105,None,,,,,,,,,,,,,,,,,,,,,,,,,,,,,,,,,,,,,,,,rer,001,2020_Sep_21_2335,config_feat_task,2020.2.4,None,
21,0,0,0,0,0,21,21,21,,,,,,,,,,,,,,,,,,,40.705740133009385,40.905865692009684,0.20252319565042853,0.5025231956504286,41.22233488000347,41.42250462001539,d,0,1.3956403750053141,41.38945816701744,None,,,,,,,,,,,,,,,,,,,,,,,,,,,,,,,,,,,,,,,,rer,001,2020_Sep_21_2335,config_feat_task,2020.2.4,None,
22,0,0,0,0,0,22,22,22,,,,,,,,,,,,,,,,,,,42.805689608008834,43.00597120900056,0.20347662366111763,0.5034766236611177,43.32190460100537,43.52422903600382,s,0,0.4902020529843867,43.490980592003325,None,,,,,,,,,,,,,,,,,,,,,,,,,,,,,,,,,,,,,,,,rer,001,2020_Sep_21_2335,config_feat_task,2020.2.4,None,
23,0,0,0,0,0,23,23,23,,,,,,,,,,,,,,,,,,,44.006078562000766,44.20593964101863,0.1997998146689497,0.4997998146689497,44.52238963599666,44.72252521800692,s,0,0.4434648279857356,44.68921287401463,None,,,,,,,,,,,,,,,,,,,,,,,,,,,,,,,,,,,,,,,,rer,001,2020_Sep_21_2335,config_feat_task,2020.2.4,None,
0,0,0,0,0,,,,,0,0,0,0,,,,,,,,,,,,,,,,,,,,,,,,,,45.15626070901635,None,space,0.9034848349983804,45.15626070901635,None,46.10630941801355,46.30597537601716,46.622183451021556,46.82277215202339,0.20890319734462537,0.5089031973446254,d,0,0.41604769899277017,46.78950103701209,None,,,,,,,,,,,,,,,,,,,,,,,rer,001,2020_Sep_21_2335,config_feat_task,2020.2.4,None,
1,0,0,0,0,,,,,0,1,1,1,,,,,,,,,,,,,,,,,,,,,,,,,,,,,,,,47.23940683400724,47.43950537202181,47.75575055900845,47.95627115201205,0.20136539163650014,0.5013653916365002,s,0,0.28523751700413413,47.9227990610234,None,,,,,,,,,,,,,,,,,,,,,,,rer,001,2020_Sep_21_2335,config_feat_task,2020.2.4,None,
2,0,0,0,0,,,,,0,2,2,2,,,,,,,,,,,,,,,,,,,,,,,,,,,,,,,,48.22233814900392,48.424581574014155,48.752876331011066,48.95617286700872,0.20170442966627888,0.5017044296662789,d,0,0.9327868470281828,48.90785708100884,None,,,,,,,,,,,,,,,,,,,,,,,rer,001,2020_Sep_21_2335,config_feat_task,2020.2.4,None,
3,0,0,0,0,,,,,0,3,3,3,,,,,,,,,,,,,,,,,,,,,,,,,,,,,,,,49.897893738001585,50.397897109010955,50.41960115902475,50.62549909800873,0.20213843532837927,0.5021384353283793,s,0,1.1616882639937103,50.57438738600467,None,,,,,,,,,,,,,,,,,,,,,,,rer,001,2020_Sep_21_2335,config_feat_task,2020.2.4,None,
4,0,0,0,0,,,,,0,4,4,4,,,,,,,,,,,,,,,,,,,,,,,,,,,,,,,,51.755893360008486,51.95634381999844,52.272486875997856,52.47452556400094,0.20441693166503683,0.5044169316650369,d,0,1.1607028899888974,52.441323060018476,None,,,,,,,,,,,,,,,,,,,,,,,rer,001,2020_Sep_21_2335,config_feat_task,2020.2.4,None,
5,0,0,0,0,,,,,0,5,5,5,,,,,,,,,,,,,,,,,,,,,,,,,,,,,,,,53.62220146501204,53.824551261001034,54.15297089802334,54.35635966001428,0.2059784346492961,0.5059784346492961,d,0,0.8672692519903649,54.307458190014586,None,,,,,,,,,,,,,,,,,,,,,,,rer,001,2020_Sep_21_2335,config_feat_task,2020.2.4,None,
6,0,0,0,0,,,,,0,6,6,6,,,,,,,,,,,,,,,,,,,,,,,,,,,,,,,,55.22466643899679,55.73109143000329,55.75272667102399,55.95797016102006,0.20676253864075989,0.5067625386407599,s,0,0.37672181701054797,55.90616920302273,None,,,,,,,,,,,,,,,,,,,,,,,rer,001,2020_Sep_21_2335,config_feat_task,2020.2.4,None,
7,0,0,0,0,,,,,0,7,7,7,,,,,,,,,,,,,,,,,,,,,,,,,,,,,,,,56.306249487010064,56.506209693005076,56.82257175500854,57.02458150399616,0.20012468768982217,0.5001246876898222,d,0,0.6839341000013519,57.0062206099974,None,,,,,,,,,,,,,,,,,,,,,,,rer,001,2020_Sep_21_2335,config_feat_task,2020.2.4,None,
8,0,0,0,0,,,,,0,8,8,8,,,,,,,,,,,,,,,,,,,,,,,,,,,,,,,,57.72229836601764,57.92293643200537,58.23928128700936,58.44137306601624,0.2022764486609958,0.5022764486609959,d,0,0.960112819011556,58.407629335008096,None,,,,,,,,,,,,,,,,,,,,,,,rer,001,2020_Sep_21_2335,config_feat_task,2020.2.4,None,
9,0,0,0,0,,,,,0,9,9,9,,,,,,,,,,,,,,,,,,,,,,,,,,,,,,,,59.38933847201406,59.58969709300436,59.90551975500421,60.1078035570099,0.205239344650181,0.505239344650181,s,0,0.8040742329903878,60.074497204012005,None,,,,,,,,,,,,,,,,,,,,,,,rer,001,2020_Sep_21_2335,config_feat_task,2020.2.4,None,
10,0,0,0,0,,,,,0,10,10,10,,,,,,,,,,,,,,,,,,,,,,,,,,,,,,,,60.924557844002265,61.12267230800353,61.4388762320159,61.6396220989991,0.21347680265898816,0.5134768026589882,d,0,0.7084590070007835,61.60619546301314,None,,,,,,,,,,,,,,,,,,,,,,,rer,001,2020_Sep_21_2335,config_feat_task,2020.2.4,None,
11,0,0,0,0,,,,,0,11,11,11,,,,,,,,,,,,,,,,,,,,,,,,,,,,,,,,62.33905183299794,62.53929147301824,62.85557818601956,63.05609627900412,0.20368736065574922,0.5036873606557493,d,0,0.9871341600082815,63.02267493100953,None,,,,,,,,,,,,,,,,,,,,,,,rer,001,2020_Sep_21_2335,config_feat_task,2020.2.4,None,
12,0,0,0,0,,,,,0,12,12,12,,,,,,,,,,,,,,,,,,,,,,,,,,,,,,,,64.03881657202146,64.23939946500468,64.58613537202473,64.79105772700859,0.21360556068248115,0.5136055606824812,s,0,0.7523290649987757,64.73941924801329,None,,,,,,,,,,,,,,,,,,,,,,,rer,001,2020_Sep_21_2335,config_feat_task,2020.2.4,None,
13,0,0,0,0,,,,,0,13,13,13,,,,,,,,,,,,,,,,,,,,,,,,,,,,,,,,65.52239960001316,65.72296338999877,66.03913293301594,66.23975548800081,0.20140375566552393,0.501403755665524,s,0,1.0892059949983377,66.20637003800948,None,,,,,,,,,,,,,,,,,,,,,,,rer,001,2020_Sep_21_2335,config_feat_task,2020.2.4,None,
14,0,0,0,0,,,,,0,14,14,14,,,,,,,,,,,,,,,,,,,,,,,,,,,,,,,,67.32279316600761,67.52473253701464,67.85314645100152,68.05642336999881,0.20219306566286832,0.5021930656628684,s,0,0.7631864340219181,68.0080503509962,None,,,,,,,,,,,,,,,,,,,,,,,rer,001,2020_Sep_21_2335,config_feat_task,2020.2.4,None,
15,0,0,0,0,,,,,0,15,15,15,,,,,,,,,,,,,,,,,,,,,,,,,,,,,,,,68.789393656014,68.98971363602323,69.30599559500115,69.50650527799735,0.20650863865739666,0.5065086386573967,d,0,0.559737244999269,69.4729415080219,None,,,,,,,,,,,,,,,,,,,,,,,rer,001,2020_Sep_21_2335,config_feat_task,2020.2.4,None,
16,0,0,0,0,,,,,0,16,16,16,,,,,,,,,,,,,,,,,,,,,,,,,,,,,,,,70.05641402001493,70.25639409801806,70.60309902601875,70.80648929602467,0.21395407468662597,0.513954074686626,d,0,1.4849872549821157,70.75805468400358,None,,,,,,,,,,,,,,,,,,,,,,,rer,001,2020_Sep_21_2335,config_feat_task,2020.2.4,None,
17,0,0,0,0,,,,,0,17,17,17,,,,,,,,,,,,,,,,,,,,,,,,,,,,,,,,72.29133253201144,72.4898011360201,72.80599228999927,73.00638363900362,0.21480684363632463,0.5148068436363247,s,0,1.770883073011646,72.97300037002424,None,,,,,,,,,,,,,,,,,,,,,,,rer,001,2020_Sep_21_2335,config_feat_task,2020.2.4,None,
18,0,0,0,0,,,,,0,18,18,18,,,,,,,,,,,,,,,,,,,,,,,,,,,,,,,,74.79151758999797,75.29730424901936,75.31790141502279,75.52314182600821,0.21148989466018975,0.5114898946601898,d,0,0.6147675829997752,75.4749128340045,None,,,,,,,,,,,,,,,,,,,,,,,rer,001,2020_Sep_21_2335,config_feat_task,2020.2.4,None,
19,0,0,0,0,,,,,0,19,19,19,,,,,,,,,,,,,,,,,,,,,,,,,,,,,,,,76.10571458699997,76.30652191702393,76.6525879210094,76.85646547700162,0.21356614466640167,0.5135661446664017,s,0,0.714962582977023,76.80808218501625,None,,,,,,,,,,,,,,,,,,,,,,,rer,001,2020_Sep_21_2335,config_feat_task,2020.2.4,None,
20,0,0,0,0,,,,,0,20,20,20,,,,,,,,,,,,,,,,,,,,,,,,,,,,,,,,77.53947457502363,77.73979580000741,78.05606512201484,78.25637978001032,0.20458533067721874,0.5045853306772188,d,0,0.47377037297701463,78.22304660102236,None,,,,,,,,,,,,,,,,,,,,,,,rer,001,2020_Sep_21_2335,config_feat_task,2020.2.4,None,
21,0,0,0,0,,,,,0,21,21,21,,,,,,,,,,,,,,,,,,,,,,,,,,,,,,,,78.72265812600381,78.92314996101777,79.23947481601499,79.43980072799604,0.20154878066387028,0.5015487806638703,s,0,0.5728775129828136,79.40638525900431,None,,,,,,,,,,,,,,,,,,,,,,,rer,001,2020_Sep_21_2335,config_feat_task,2020.2.4,None,
22,0,0,0,0,,,,,0,22,22,22,,,,,,,,,,,,,,,,,,,,,,,,,,,,,,,,80.00668506801594,80.2065941960027,80.53693332400871,80.739825932018,0.19954222466913052,0.4995422246691305,d,0,1.0850220519932918,80.70649976300774,None,,,,,,,,,,,,,,,,,,,,,,,rer,001,2020_Sep_21_2335,config_feat_task,2020.2.4,None,
23,0,0,0,0,,,,,0,23,23,23,,,,,,,,,,,,,,,,,,,,,,,,,,,,,,,,81.82296420400962,82.02323738101404,82.35302278300514,82.5581871860195,0.2036143136501778,0.5036143136501778,s,0,0.5976986240129918,82.50629905299866,None,,,,,,,,,,,,,,,,,,,,,,,rer,001,2020_Sep_21_2335,config_feat_task,2020.2.4,None,
0,0,0,0,0,,,,,,,,,0,0,0,0,,,,,83.12311147601577,None,space,0.9446009160019457,83.12311147601577,None,,,,,,,,,,,,,,,,,,,,,,,,,,,,,84.10779710800853,84.61455043801107,84.6360593260033,84.83983429899672,0.21127884669112973,0.5112788466911298,s,0,0.5566153670079075,84.79154995101271,None,,,,,,,,,,,,rer,001,2020_Sep_21_2335,config_feat_task,2020.2.4,None,
1,0,0,0,0,,,,,,,,,0,1,1,1,,,,,,,,,,,,,,,,,,,,,,,,,,,,,,,,,,,,,,,85.37298059600289,85.57489097700454,85.90297466001357,86.10829941200791,0.20168212466523983,0.5016821246652399,d,0,0.3749674159917049,86.05662994700833,None,,,,,,,,,,,,rer,001,2020_Sep_21_2335,config_feat_task,2020.2.4,None,
2,0,0,0,0,,,,,,,,,0,2,2,2,,,,,,,,,,,,,,,,,,,,,,,,,,,,,,,,,,,,,,,86.45628233501338,86.65655119699659,86.97273560400936,87.17314839901519,0.20459732069866732,0.5045973206986674,s,0,0.2162961650174111,87.13993074101745,None,,,,,,,,,,,,rer,001,2020_Sep_21_2335,config_feat_task,2020.2.4,None,
3,0,0,0,0,,,,,,,,,0,3,3,3,,,,,,,,,,,,,,,,,,,,,,,,,,,,,,,,,,,,,,,87.37336644702009,87.57336791601847,87.88946977100568,88.09001834099763,0.20697907166322693,0.506979071663227,s,0,0.7128860719967633,88.05681303000893,None,,,,,,,,,,,,rer,001,2020_Sep_21_2335,config_feat_task,2020.2.4,None,
4,0,0,0,0,,,,,,,,,0,4,4,4,,,,,,,,,,,,,,,,,,,,,,,,,,,,,,,,,,,,,,,88.78899713500869,88.98998763901182,89.30609576799907,89.50822981601232,0.20109049367601983,0.5010904936760199,d,0,0.29069853300461546,89.47479893799755,None,,,,,,,,,,,,rer,001,2020_Sep_21_2335,config_feat_task,2020.2.4,None,
5,0,0,0,0,,,,,,,,,0,5,5,5,,,,,,,,,,,,,,,,,,,,,,,,,,,,,,,,,,,,,,,89.79016693899757,89.98999383900082,90.33561937400373,90.53989566100063,0.21183486963855103,0.5118348696385511,s,0,0.2876370440062601,90.49183615201036,None,,,,,,,,,,,,rer,001,2020_Sep_21_2335,config_feat_task,2020.2.4,None,
6,0,0,0,0,,,,,,,,,0,6,6,6,,,,,,,,,,,,,,,,,,,,,,,,,,,,,,,,,,,,,,,90.82498766100616,91.33121714301524,91.3528528349998,91.55658524599858,0.21181026269914582,0.5118102626991459,d,0,0.5887298109882977,91.50835927401204,None,,,,,,,,,,,,rer,001,2020_Sep_21_2335,config_feat_task,2020.2.4,None,
7,0,0,0,0,,,,,,,,,0,7,7,7,,,,,,,,,,,,,,,,,,,,,,,,,,,,,,,,,,,,,,,92.1224835489993,92.32500125301885,92.65354436001508,92.85642896700301,0.19900612864876166,0.49900612864876165,d,0,1.1547610459965654,92.80818684300175,None,,,,,,,,,,,,rer,001,2020_Sep_21_2335,config_feat_task,2020.2.4,None,
8,0,0,0,0,,,,,,,,,0,8,8,8,,,,,,,,,,,,,,,,,,,,,,,,,,,,,,,,,,,,,,,93.98962573101744,94.19178307100083,94.51999101802357,94.72499590102234,0.20113965464406647,0.5011396546440665,d,0,0.8997967890172731,94.6732135520142,None,,,,,,,,,,,,rer,001,2020_Sep_21_2335,config_feat_task,2020.2.4,None,
9,0,0,0,0,,,,,,,,,0,9,9,9,,,,,,,,,,,,,,,,,,,,,,,,,,,,,,,,,,,,,,,95.60816091301967,95.80621778601198,96.12287500800448,96.32491563100484,0.21277765068225563,0.5127776506822557,s,0,0.3782394150039181,96.28995407000184,None,,,,,,,,,,,,rer,001,2020_Sep_21_2335,config_feat_task,2020.2.4,None,
10,0,0,0,0,,,,,,,,,0,10,10,10,,,,,,,,,,,,,,,,,,,,,,,,,,,,,,,,,,,,,,,96.6897489039984,96.89177326101344,97.21997169600218,97.4233422440011,0.20138154269079678,0.5013815426907968,d,0,0.5332215270027518,97.37504423200153,None,,,,,,,,,,,,rer,001,2020_Sep_21_2335,config_feat_task,2020.2.4,None,
11,0,0,0,0,,,,,,,,,0,11,11,11,,,,,,,,,,,,,,,,,,,,,,,,,,,,,,,,,,,,,,,97.92272085801233,98.12503196301986,98.45335548502044,98.6565513999958,0.201335765683325,0.501335765683325,s,0,0.5644569900177885,98.60834715201054,None,,,,,,,,,,,,rer,001,2020_Sep_21_2335,config_feat_task,2020.2.4,None,
12,0,0,0,0,,,,,,,,,0,12,12,12,,,,,,,,,,,,,,,,,,,,,,,,,,,,,,,,,,,,,,,99.18969880201621,99.3900767370069,99.72002256201813,99.9249483240128,0.2057620526466053,0.5057620526466053,d,0,0.619631677021971,99.873263735004,None,,,,,,,,,,,,rer,001,2020_Sep_21_2335,config_feat_task,2020.2.4,None,
13,0,0,0,0,,,,,,,,,0,13,13,13,,,,,,,,,,,,,,,,,,,,,,,,,,,,,,,,,,,,,,,100.54159195200191,100.73997424001573,101.05619906701031,101.2566755140142,0.20913229064899497,0.509132290648995,s,0,0.1759909480169881,101.22328085801564,None,,,,,,,,,,,,rer,001,2020_Sep_21_2335,config_feat_task,2020.2.4,None,
14,0,0,0,0,,,,,,,,,0,14,14,14,,,,,,,,,,,,,,,,,,,,,,,,,,,,,,,,,,,,,,,101.42312761000358,101.62500125099905,101.95318646999658,102.15660834900336,0.20332891066209413,0.5033289106620942,s,0,1.317978425999172,102.10859819300822,None,,,,,,,,,,,,rer,001,2020_Sep_21_2335,config_feat_task,2020.2.4,None,
15,0,0,0,0,,,,,,,,,0,15,15,15,,,,,,,,,,,,,,,,,,,,,,,,,,,,,,,,,,,,,,,103.45570593801676,103.65664028000901,103.97270184301306,104.17505656002322,0.20151570765301585,0.5015157076530159,d,0,0.8499932490231004,104.1418428280158,None,,,,,,,,,,,,rer,001,2020_Sep_21_2335,config_feat_task,2020.2.4,None,
16,0,0,0,0,,,,,,,,,0,16,16,16,,,,,,,,,,,,,,,,,,,,,,,,,,,,,,,,,,,,,,,105.04184003101545,105.54832438399899,105.57003252100549,105.77331673301524,0.21184269365039654,0.5118426936503966,d,0,0.7987891160009895,105.72511113699875,None,,,,,,,,,,,,rer,001,2020_Sep_21_2335,config_feat_task,2020.2.4,None,
17,0,0,0,0,,,,,,,,,0,17,17,17,,,,,,,,,,,,,,,,,,,,,,,,,,,,,,,,,,,,,,,106.57512167599634,107.08157607901376,107.10340247300337,107.30843495301087,0.20923552964814007,0.5092355296481401,s,0,0.3186454300011974,107.25663569802418,None,,,,,,,,,,,,rer,001,2020_Sep_21_2335,config_feat_task,2020.2.4,None,
18,0,0,0,0,,,,,,,,,0,18,18,18,,,,,,,,,,,,,,,,,,,,,,,,,,,,,,,,,,,,,,,107.62517889399896,108.1315856820147,108.15342310699634,108.35859670100035,0.2115026026731357,0.5115026026731357,d,0,0.5942348259850405,108.30822874599835,None,,,,,,,,,,,,rer,001,2020_Sep_21_2335,config_feat_task,2020.2.4,None,
19,0,0,0,0,,,,,,,,,0,19,19,19,,,,,,,,,,,,,,,,,,,,,,,,,,,,,,,,,,,,,,,108.92310527802329,109.1250881900196,109.45341948099667,109.65666583101847,0.20167515065986663,0.5016751506598667,s,0,0.6578502279880922,109.60836655599996,None,,,,,,,,,,,,rer,001,2020_Sep_21_2335,config_feat_task,2020.2.4,None,
20,0,0,0,0,,,,,,,,,0,20,20,20,,,,,,,,,,,,,,,,,,,,,,,,,,,,,,,,,,,,,,,110.2898308080039,110.49003126099706,110.8063344140246,111.00662631500745,0.20394105865852907,0.5039410586585291,s,0,0.6509716360014863,110.97337194302236,None,,,,,,,,,,,,rer,001,2020_Sep_21_2335,config_feat_task,2020.2.4,None,
21,0,0,0,0,,,,,,,,,0,21,21,21,,,,,,,,,,,,,,,,,,,,,,,,,,,,,,,,,,,,,,,111.63973388401791,111.8401769430202,112.15628799202386,112.356734393019,0.2035379906592425,0.5035379906592425,d,0,0.34915571499732323,112.32331746301497,None,,,,,,,,,,,,rer,001,2020_Sep_21_2335,config_feat_task,2020.2.4,None,
22,0,0,0,0,,,,,,,,,0,22,22,22,,,,,,,,,,,,,,,,,,,,,,,,,,,,,,,,,,,,,,,112.68939031902119,112.89012983400607,113.20630113300285,113.40671461701277,0.200309310661396,0.5003093106613961,s,0,1.1507108490040991,113.37277754000388,None,,,,,,,,,,,,rer,001,2020_Sep_21_2335,config_feat_task,2020.2.4,None,
23,0,0,0,0,,,,,,,,,0,23,23,23,,,,,,,,,,,,,,,,,,,,,,,,,,,,,,,,,,,,,,,114.55581494400394,114.7558702440001,115.07297952400404,115.27315975201782,0.20062512168078683,0.5006251216807869,d,0,0.4950328270206228,115.24001671001315,None,,,,,,,,,,,,rer,001,2020_Sep_21_2335,config_feat_task,2020.2.4,None,
0,0,0,0,0,,,,,,,,,,,,,0,0,0,0,,,,,,,,,,,,,,,,,,115.75664816700737,None,space,1.2753380040230695,115.75664816700737,None,,,,,,,,,,,,,,,,,,,,,,,117.05568250399665,117.25829361900105,117.58949975902215,117.78992335600196,0.21616163462749682,0.5161616346274969,d,0,1.3123820740147494,117.75647005499923,None,rer,001,2020_Sep_21_2335,config_feat_task,2020.2.4,None,
1,0,0,0,0,,,,,,,,,,,,,0,1,1,1,,,,,,,,,,,,,,,,,,,,,,,,,,,,,,,,,,,,,,,,,,,,,,119.08972092301701,119.29002809300437,119.60601874900749,119.80793495400576,0.20431601969175972,0.5043160196917598,s,0,0.5814214120036922,119.77437517500948,None,rer,001,2020_Sep_21_2335,config_feat_task,2020.2.4,None,
2,0,0,0,0,,,,,,,,,,,,,0,2,2,2,,,,,,,,,,,,,,,,,,,,,,,,,,,,,,,,,,,,,,,,,,,,,,120.3727081649995,120.5730942680093,120.88939899200341,121.08986746199662,0.20601469068787992,0.50601469068788,d,0,0.8589995259826537,121.05640080402372,None,rer,001,2020_Sep_21_2335,config_feat_task,2020.2.4,None,
3,0,0,0,0,,,,,,,,,,,,,0,3,3,3,,,,,,,,,,,,,,,,,,,,,,,,,,,,,,,,,,,,,,,,,,,,,,121.93938643700676,122.1395876769966,122.45586273900699,122.65625081100734,0.20166559267090634,0.5016655926709064,s,0,2.6222861709829886,122.62285756701021,None,rer,001,2020_Sep_21_2335,config_feat_task,2020.2.4,None,
4,0,0,0,0,,,,,,,,,,,,,0,4,4,4,,,,,,,,,,,,,,,,,,,,,,,,,,,,,,,,,,,,,,,,,,,,,,125.2731934900221,125.47351338202134,125.7898024750175,125.99031130402,0.20242338263778947,0.5024233826377895,d,0,1.8969720739987679,125.95677049900405,None,rer,001,2020_Sep_21_2335,config_feat_task,2020.2.4,None,
5,0,0,0,0,,,,,,,,,,,,,0,5,5,5,,,,,,,,,,,,,,,,,,,,,,,,,,,,,,,,,,,,,,,,,,,,,,127.87327445100527,128.0735393440118,128.38958495401312,128.59184751301655,0.20519954865449108,0.5051995486544911,d,0,2.2692248189996462,128.558546011016,None,rer,001,2020_Sep_21_2335,config_feat_task,2020.2.4,None,
6,0,0,0,0,,,,,,,,,,,,,0,6,6,6,,,,,,,,,,,,,,,,,,,,,,,,,,,,,,,,,,,,,,,,,,,,,,130.85615073001827,131.05919872102095,131.38991879700916,131.591826037009,0.21670158064807765,0.5167015806480777,s,0,0.7436159329954535,131.54025476399693,None,rer,001,2020_Sep_21_2335,config_feat_task,2020.2.4,None,
7,0,0,0,0,,,,,,,,,,,,,0,7,7,7,,,,,,,,,,,,,,,,,,,,,,,,,,,,,,,,,,,,,,,,,,,,,,132.30656407302013,132.50689835500089,132.82320548899588,133.02340057701804,0.20496636466123164,0.5049663646612317,d,0,0.7507733359816484,132.99025559102301,None,rer,001,2020_Sep_21_2335,config_feat_task,2020.2.4,None,
8,0,0,0,0,,,,,,,,,,,,,0,8,8,8,,,,,,,,,,,,,,,,,,,,,,,,,,,,,,,,,,,,,,,,,,,,,,133.75645426902338,133.95688953000354,134.27324908302398,134.47531759701087,0.2036783036601264,0.5036783036601264,s,0,0.8032559389830567,134.44189028200344,None,rer,001,2020_Sep_21_2335,config_feat_task,2020.2.4,None,
9,0,0,0,0,,,,,,,,,,,,,0,9,9,9,,,,,,,,,,,,,,,,,,,,,,,,,,,,,,,,,,,,,,,,,,,,,,135.2730895160057,135.47355496601085,135.78984556900105,135.9903637660027,0.20589124466641806,0.5058912446664181,d,0,1.0732713300094474,135.95691746400553,None,rer,001,2020_Sep_21_2335,config_feat_task,2020.2.4,None,
10,0,0,0,0,,,,,,,,,,,,,0,10,10,10,,,,,,,,,,,,,,,,,,,,,,,,,,,,,,,,,,,,,,,,,,,,,,137.0567591029976,137.25682790399878,137.57324221200543,137.77367927200976,0.20287384066614322,0.5028738406661433,s,0,1.0118267369980458,137.74038468999788,None,rer,001,2020_Sep_21_2335,config_feat_task,2020.2.4,None,
11,0,0,0,0,,,,,,,,,,,,,0,11,11,11,,,,,,,,,,,,,,,,,,,,,,,,,,,,,,,,,,,,,,,,,,,,,,138.77336378401378,138.97369990200968,139.2898151440022,139.49043018501834,0.20721273066010326,0.5072127306601033,d,0,0.4884326869796496,139.45703045700793,None,rer,001,2020_Sep_21_2335,config_feat_task,2020.2.4,None,
12,0,0,0,0,,,,,,,,,,,,,0,12,12,12,,,,,,,,,,,,,,,,,,,,,,,,,,,,,,,,,,,,,,,,,,,,,,139.97334656500607,140.17371165999793,140.50409379100893,140.70663760902244,0.20413726966944523,0.5041372696694453,s,0,0.46211484700324945,140.65865232801298,None,rer,001,2020_Sep_21_2335,config_feat_task,2020.2.4,None,
13,0,0,0,0,,,,,,,,,,,,,0,13,13,13,,,,,,,,,,,,,,,,,,,,,,,,,,,,,,,,,,,,,,,,,,,,,,141.14015696200659,141.34028667601524,141.65653875502176,141.85696615700726,0.2028985706565436,0.5028985706565436,d,0,0.8305082740262151,141.82363366000936,None,rer,001,2020_Sep_21_2335,config_feat_task,2020.2.4,None,
14,0,0,0,0,,,,,,,,,,,,,0,14,14,14,,,,,,,,,,,,,,,,,,,,,,,,,,,,,,,,,,,,,,,,,,,,,,142.67333294299897,142.8736264090112,143.189948284009,143.39031733301817,0.20651451766025275,0.5065145176602528,s,0,0.2547274350072257,143.35694618200068,None,rer,001,2020_Sep_21_2335,config_feat_task,2020.2.4,None,
15,0,0,0,0,,,,,,,,,,,,,0,15,15,15,,,,,,,,,,,,,,,,,,,,,,,,,,,,,,,,,,,,,,,,,,,,,,143.6399953570217,143.84192391502438,144.1704167780117,144.37535839300836,0.19959210764500313,0.4995921076450031,d,0,0.6434252359904349,144.32361153900274,None,rer,001,2020_Sep_21_2335,config_feat_task,2020.2.4,None,
16,0,0,0,0,,,,,,,,,,,,,0,16,16,16,,,,,,,,,,,,,,,,,,,,,,,,,,,,,,,,,,,,,,,,,,,,,,144.99003662800533,145.19045568502042,145.50678565600538,145.70856304001063,0.20325235367636196,0.503252353676362,s,0,0.27815213898429647,145.67549578502076,None,rer,001,2020_Sep_21_2335,config_feat_task,2020.2.4,None,
17,0,0,0,0,,,,,,,,,,,,,0,17,17,17,,,,,,,,,,,,,,,,,,,,,,,,,,,,,,,,,,,,,,,,,,,,,,145.9737479450123,146.17549898702418,146.50372498700744,146.70704046302126,0.20452871365705505,0.5045287136570551,s,0,0.4793193990190048,146.65887487202417,None,rer,001,2020_Sep_21_2335,config_feat_task,2020.2.4,None,
18,0,0,0,0,,,,,,,,,,,,,0,18,18,18,,,,,,,,,,,,,,,,,,,,,,,,,,,,,,,,,,,,,,,,,,,,,,147.15674310800387,147.35838455401245,147.67264897801215,147.87543266100693,0.20428036464727484,0.5042803646472749,d,0,0.5667371400049888,147.84243721701205,None,rer,001,2020_Sep_21_2335,config_feat_task,2020.2.4,None,
19,0,0,0,0,,,,,,,,,,,,,0,19,19,19,,,,,,,,,,,,,,,,,,,,,,,,,,,,,,,,,,,,,,,,,,,,,,148.44020809000358,148.6403816990205,148.9564729249978,149.15710410301108,0.19998937463969924,0.4999893746396992,s,0,0.7312100889976136,149.12370614599786,None,rer,001,2020_Sep_21_2335,config_feat_task,2020.2.4,None,
20,0,0,0,0,,,,,,,,,,,,,0,20,20,20,,,,,,,,,,,,,,,,,,,,,,,,,,,,,,,,,,,,,,,,,,,,,,149.87345348999952,150.07370478101075,150.39006841901573,150.5920699670096,0.20591271770535968,0.5059127177053597,d,0,0.5374188260175288,150.55878111801576,None,rer,001,2020_Sep_21_2335,config_feat_task,2020.2.4,None,
21,0,0,0,0,,,,,,,,,,,,,0,21,21,21,,,,,,,,,,,,,,,,,,,,,,,,,,,,,,,,,,,,,,,,,,,,,,151.12353040999733,151.3235276460182,151.63992735100328,151.84049802299705,0.20255347868078388,0.5025534786807839,s,0,0.35047009799745865,151.8070828540076,None,rer,001,2020_Sep_21_2335,config_feat_task,2020.2.4,None,
22,0,0,0,0,,,,,,,,,,,,,0,22,22,22,,,,,,,,,,,,,,,,,,,,,,,,,,,,,,,,,,,,,,,,,,,,,,152.17346266901586,152.37394628100446,152.6901994300133,152.8905025900167,0.20446134664234705,0.5044613466423471,d,0,0.07275303298956715,152.8571432190074,None,rer,001,2020_Sep_21_2335,config_feat_task,2020.2.4,None,
23,0,0,0,0,,,,,,,,,,,,,0,23,23,23,,,,,,,,,,,,,,,,,,,,,,,,,,,,,,,,,,,,,,,,,,,,,,152.95752331300173,153.1589277140156,153.4901118830021,153.69218547001947,0.21674326664651744,0.5167432666465175,s,0,0.5021851350029465,153.6589860850072,None,rer,001,2020_Sep_21_2335,config_feat_task,2020.2.4,None,
,0,0,0,0,,,,,,,,,,,,,,,,,,,,,,,,,,,,,,,,,,,,,,,,,,,,,,,,,,,,,,,,,,,,,,,,,,,,,,,,,rer,001,2020_Sep_21_2335,config_feat_task,2020.2.4,None,
0,1,0,1,0,0,0,0,0,,,,,,,,,,,,,154.19036837402382,None,space,0.8214781580027193,154.19036837402382,None,155.05935310100904,155.56534537300467,0.20525859566987492,0.505258595669875,155.5871437480091,155.7903856310004,d,0,0.6108984379970934,155.7421661670087,None,,,,,,,,,,,,,,,,,,,,,,,,,,,,,,,,,,,,,,,,rer,001,2020_Sep_21_2335,config_feat_task,2020.2.4,None,
1,1,0,1,0,0,1,1,1,,,,,,,,,,,,,,,,,,,156.37344454301638,156.5752069989976,0.20202610967680812,0.5020261096768082,156.9038428540225,157.10715070102015,s,0,0.5142322859901469,157.05878514700453,None,,,,,,,,,,,,,,,,,,,,,,,,,,,,,,,,,,,,,,,,rer,001,2020_Sep_21_2335,config_feat_task,2020.2.4,None,
2,1,0,1,0,0,2,2,2,,,,,,,,,,,,,,,,,,,157.59077433001949,157.7904494650138,0.20444787066662684,0.5044478706666269,158.10677603402291,158.30629685500753,d,0,0.3204099950089585,158.27376800001366,None,,,,,,,,,,,,,,,,,,,,,,,,,,,,,,,,,,,,,,,,rer,001,2020_Sep_21_2335,config_feat_task,2020.2.4,None,
3,1,0,1,0,0,3,3,3,,,,,,,,,,,,,,,,,,,158.62366927001858,158.8237722790218,0.20464261565939523,0.5046426156593953,159.13969421200454,159.34214523201808,s,0,0.19856890899245627,159.3088057040004,None,,,,,,,,,,,,,,,,,,,,,,,,,,,,,,,,,,,,,,,,rer,001,2020_Sep_21_2335,config_feat_task,2020.2.4,None,
4,1,0,1,0,0,4,4,4,,,,,,,,,,,,,,,,,,,159.52351404199726,159.72364619901055,0.2032653676578775,0.5032653676578775,160.04001855800743,160.24048805100028,d,0,0.40087447498808615,160.20710824301932,None,,,,,,,,,,,,,,,,,,,,,,,,,,,,,,,,,,,,,,,,rer,001,2020_Sep_21_2335,config_feat_task,2020.2.4,None,
5,1,0,1,0,0,5,5,5,,,,,,,,,,,,,,,,,,,160.62350867700297,160.82390340202255,0.20409720166935585,0.5040972016693559,161.1401203200221,161.34230841099634,s,0,0.2895938130095601,161.30894489900675,None,,,,,,,,,,,,,,,,,,,,,,,,,,,,,,,,,,,,,,,,rer,001,2020_Sep_21_2335,config_feat_task,2020.2.4,None,
6,1,0,1,0,0,6,6,6,,,,,,,,,,,,,,,,,,,161.62369105801918,161.82390688502346,0.20470069264410995,0.50470069264411,162.140096668998,162.34219145201496,s,0,0.4081367149774451,162.3069172250107,None,,,,,,,,,,,,,,,,,,,,,,,,,,,,,,,,,,,,,,,,rer,001,2020_Sep_21_2335,config_feat_task,2020.2.4,None,
7,1,0,1,0,0,7,7,7,,,,,,,,,,,,,,,,,,,162.74027814500732,162.94055134401424,0.2059681316895876,0.5059681316895877,163.25676797502092,163.45884633201058,s,0,0.40956756498781033,163.42588873099885,None,,,,,,,,,,,,,,,,,,,,,,,,,,,,,,,,,,,,,,,,rer,001,2020_Sep_21_2335,config_feat_task,2020.2.4,None,
8,1,0,1,0,0,8,8,8,,,,,,,,,,,,,,,,,,,163.85692683199886,164.0571440780186,0.2034401366545353,0.5034401366545354,164.37341682400438,164.57380978000583,d,0,0.24667340598534793,164.54044670102303,None,,,,,,,,,,,,,,,,,,,,,,,,,,,,,,,,,,,,,,,,rer,001,2020_Sep_21_2335,config_feat_task,2020.2.4,None,
9,1,0,1,0,0,9,9,9,,,,,,,,,,,,,,,,,,,164.80692169000395,165.00718703801977,0.20721679265261628,0.5072167926526163,165.32311236401438,165.52381743199658,s,0,0.8083124670083635,165.4902361970162,None,,,,,,,,,,,,,,,,,,,,,,,,,,,,,,,,,,,,,,,,rer,001,2020_Sep_21_2335,config_feat_task,2020.2.4,None,
10,1,0,1,0,0,10,10,10,,,,,,,,,,,,,,,,,,,166.32338562101359,166.5235960810096,0.20544306564261205,0.5054430656426121,166.83977973501896,167.04022394900676,s,0,0.6620000900002196,167.00688889500452,None,,,,,,,,,,,,,,,,,,,,,,,,,,,,,,,,,,,,,,,,rer,001,2020_Sep_21_2335,config_feat_task,2020.2.4,None,
11,1,0,1,0,0,11,11,11,,,,,,,,,,,,,,,,,,,167.6901173290098,167.89030166700832,0.20471382766845636,0.5047138276684564,168.20665594100137,168.40874325702316,s,0,0.4863296000112314,168.37532749801176,None,,,,,,,,,,,,,,,,,,,,,,,,,,,,,,,,,,,,,,,,rer,001,2020_Sep_21_2335,config_feat_task,2020.2.4,None,
12,1,0,1,0,0,12,12,12,,,,,,,,,,,,,,,,,,,168.88969704601914,169.09021671200753,0.2009684596559964,0.5009684596559965,169.40661550901132,169.60697711500688,d,0,0.3520066110068001,169.57357446401147,None,,,,,,,,,,,,,,,,,,,,,,,,,,,,,,,,,,,,,,,,rer,001,2020_Sep_21_2335,config_feat_task,2020.2.4,None,
13,1,0,1,0,0,13,13,13,,,,,,,,,,,,,,,,,,,169.9397273180075,170.14022952501546,0.20200695266248658,0.5020069526624866,170.45608539300156,170.65633160300786,s,0,0.5904673500044737,170.62463120301254,None,,,,,,,,,,,,,,,,,,,,,,,,,,,,,,,,,,,,,,,,rer,001,2020_Sep_21_2335,config_feat_task,2020.2.4,None,
14,1,0,1,0,0,14,14,14,,,,,,,,,,,,,,,,,,,171.239828159014,171.4421305010037,0.2172818946710322,0.5172818946710322,171.77338342400617,171.97536576000857,d,0,0.4409533959988039,171.9236828990106,None,,,,,,,,,,,,,,,,,,,,,,,,,,,,,,,,,,,,,,,,rer,001,2020_Sep_21_2335,config_feat_task,2020.2.4,None,
15,1,0,1,0,0,15,15,15,,,,,,,,,,,,,,,,,,,172.38981190501363,172.58991152700037,0.20166961566428654,0.5016696156642866,172.90667262100033,173.10694048501318,s,0,0.19921894499566406,173.07366033899598,None,,,,,,,,,,,,,,,,,,,,,,,,,,,,,,,,,,,,,,,,rer,001,2020_Sep_21_2335,config_feat_task,2020.2.4,None,
16,1,0,1,0,0,16,16,16,,,,,,,,,,,,,,,,,,,173.29002626202418,173.49024675702094,0.20365198465879075,0.5036519846587908,173.80649750801967,174.00876636602334,d,0,0.26514757302356884,173.97532447701087,None,,,,,,,,,,,,,,,,,,,,,,,,,,,,,,,,,,,,,,,,rer,001,2020_Sep_21_2335,config_feat_task,2020.2.4,None,
17,1,0,1,0,0,17,17,17,,,,,,,,,,,,,,,,,,,174.25685773300938,174.4569737590209,0.20525152765912935,0.5052515276591294,174.77315804400132,174.97541082001408,s,0,0.6452272210153751,174.94209156601573,None,,,,,,,,,,,,,,,,,,,,,,,,,,,,,,,,,,,,,,,,rer,001,2020_Sep_21_2335,config_feat_task,2020.2.4,None,
18,1,0,1,0,0,18,18,18,,,,,,,,,,,,,,,,,,,175.60703752402333,175.80724501801888,0.20571879667113535,0.5057187966711354,176.12355371101876,176.32584188799956,s,0,0.37473337101982906,176.292085943016,None,,,,,,,,,,,,,,,,,,,,,,,,,,,,,,,,,,,,,,,,rer,001,2020_Sep_21_2335,config_feat_task,2020.2.4,None,
19,1,0,1,0,0,19,19,19,,,,,,,,,,,,,,,,,,,176.69007134300773,176.890650011017,0.20211475770338438,0.5021147577033844,177.2068755920045,177.40722874199855,s,0,0.42963273302302696,177.3740680560004,None,,,,,,,,,,,,,,,,,,,,,,,,,,,,,,,,,,,,,,,,rer,001,2020_Sep_21_2335,config_feat_task,2020.2.4,None,
20,1,0,1,0,0,20,20,20,,,,,,,,,,,,,,,,,,,177.82359337501111,178.02396413500537,0.2069760826707352,0.5069760826707352,178.34020011601388,178.54239655501442,d,0,0.46397802300634794,178.50898334302474,None,,,,,,,,,,,,,,,,,,,,,,,,,,,,,,,,,,,,,,,,rer,001,2020_Sep_21_2335,config_feat_task,2020.2.4,None,
21,1,0,1,0,0,21,21,21,,,,,,,,,,,,,,,,,,,178.98984028201085,179.19148210601998,0.20225652866065502,0.5022565286606551,179.52066436700989,179.72498502401868,s,0,0.6311542740149889,179.6739716050215,None,,,,,,,,,,,,,,,,,,,,,,,,,,,,,,,,,,,,,,,,rer,001,2020_Sep_21_2335,config_feat_task,2020.2.4,None,
22,1,0,1,0,0,22,22,22,,,,,,,,,,,,,,,,,,,180.3236609340238,180.52396621002117,0.2055952946539037,0.5055952946539037,180.83960097801173,181.03987195700756,d,0,0.3424035560165066,181.00804667401826,None,,,,,,,,,,,,,,,,,,,,,,,,,,,,,,,,,,,,,,,,rer,001,2020_Sep_21_2335,config_feat_task,2020.2.4,None,
23,1,0,1,0,0,23,23,23,,,,,,,,,,,,,,,,,,,181.37387306801975,181.57408196601318,0.20549721564748324,0.5054972156474833,181.89022255601594,182.09228492202237,d,0,0.16542238197871484,182.05902600599802,None,,,,,,,,,,,,,,,,,,,,,,,,,,,,,,,,,,,,,,,,rer,001,2020_Sep_21_2335,config_feat_task,2020.2.4,None,
0,1,0,1,0,,,,,0,0,0,0,,,,,,,,,,,,,,,,,,,,,,,,,,182.2572911150055,None,space,0.9319891110062599,182.2572911150055,None,183.2240680460236,183.4238989110163,183.7536510710197,183.95912303999648,0.20151593667105772,0.5015159366710578,d,0,0.5845632310083602,183.90905517200008,None,,,,,,,,,,,,,,,,,,,,,,,rer,001,2020_Sep_21_2335,config_feat_task,2020.2.4,None,
1,1,0,1,0,,,,,0,1,1,1,,,,,,,,,,,,,,,,,,,,,,,,,,,,,,,,184.5243377610168,184.72401576701668,185.0707343200047,185.2740382880147,0.21382450871169567,0.5138245087116957,s,0,0.299080694996519,185.2255965960212,None,,,,,,,,,,,,,,,,,,,,,,,rer,001,2020_Sep_21_2335,config_feat_task,2020.2.4,None,
2,1,0,1,0,,,,,0,2,2,2,,,,,,,,,,,,,,,,,,,,,,,,,,,,,,,,185.54011590301525,185.74305023401394,186.07073298300384,186.27403924500686,0.20394069066969678,0.5039406906696968,d,0,0.8760587429860607,186.22610273500322,None,,,,,,,,,,,,,,,,,,,,,,,rer,001,2020_Sep_21_2335,config_feat_task,2020.2.4,None,
3,1,0,1,0,,,,,0,3,3,3,,,,,,,,,,,,,,,,,,,,,,,,,,,,,,,,187.12400634700316,187.32404264900833,187.64017942300416,187.84067423900706,0.20407127967337146,0.5040712796733715,s,0,0.341916017991025,187.80747524101753,None,,,,,,,,,,,,,,,,,,,,,,,rer,001,2020_Sep_21_2335,config_feat_task,2020.2.4,None,
4,1,0,1,0,,,,,0,4,4,4,,,,,,,,,,,,,,,,,,,,,,,,,,,,,,,,188.17379815201275,188.3740702420182,188.70449617202394,188.90916931899847,0.2034652286383789,0.503465228638379,s,0,1.4562564719817601,188.85737420100486,None,,,,,,,,,,,,,,,,,,,,,,,rer,001,2020_Sep_21_2335,config_feat_task,2020.2.4,None,
5,1,0,1,0,,,,,0,5,5,5,,,,,,,,,,,,,,,,,,,,,,,,,,,,,,,,190.33999548701104,190.54068521401496,190.85695845101145,191.05908978101797,0.20375328365480527,0.5037532836548053,s,0,0.6387862330011558,191.02565885600052,None,,,,,,,,,,,,,,,,,,,,,,,rer,001,2020_Sep_21_2335,config_feat_task,2020.2.4,None,
6,1,0,1,0,,,,,0,6,6,6,,,,,,,,,,,,,,,,,,,,,,,,,,,,,,,,191.69049314199947,191.89079290401423,192.2069601350231,192.40747636000742,0.20367646365775727,0.5036764636577573,d,0,0.4318972449982539,192.37409883001237,None,,,,,,,,,,,,,,,,,,,,,,,rer,001,2020_Sep_21_2335,config_feat_task,2020.2.4,None,
7,1,0,1,0,,,,,0,7,7,7,,,,,,,,,,,,,,,,,,,,,,,,,,,,,,,,192.82403034801246,193.02405987601378,193.34031115000835,193.5406684850168,0.2069296586269047,0.5069296586269048,s,0,0.2444089569908101,193.50734647799982,None,,,,,,,,,,,,,,,,,,,,,,,rer,001,2020_Sep_21_2335,config_feat_task,2020.2.4,None,
8,1,0,1,0,,,,,0,8,8,8,,,,,,,,,,,,,,,,,,,,,,,,,,,,,,,,193.77380678601912,193.97407603400643,194.30414813902462,194.50751644102274,0.20548334065824747,0.5054833406582475,s,0,0.7110774480097461,194.45920577200013,None,,,,,,,,,,,,,,,,,,,,,,,rer,001,2020_Sep_21_2335,config_feat_task,2020.2.4,None,
9,1,0,1,0,,,,,0,9,9,9,,,,,,,,,,,,,,,,,,,,,,,,,,,,,,,,195.19001301101525,195.39050497699645,195.70690695600933,195.90914350000094,0.19971346366219223,0.4997134636621922,s,0,0.5772746079892386,195.89048788201762,None,,,,,,,,,,,,,,,,,,,,,,,rer,001,2020_Sep_21_2335,config_feat_task,2020.2.4,None,
10,1,0,1,0,,,,,0,10,10,10,,,,,,,,,,,,,,,,,,,,,,,,,,,,,,,,196.48993461902137,196.69054645800497,197.03730355901644,197.24065819600946,0.2129141836776398,0.5129141836776399,d,0,0.3660756370227318,197.1923618040164,None,,,,,,,,,,,,,,,,,,,,,,,rer,001,2020_Sep_21_2335,config_feat_task,2020.2.4,None,
11,1,0,1,0,,,,,0,11,11,11,,,,,,,,,,,,,,,,,,,,,,,,,,,,,,,,197.5742399879964,197.7737295429979,198.12064863700652,198.32383614600985,0.21355243469588459,0.5135524346958846,s,0,0.16459615901112556,198.2756037490035,None,,,,,,,,,,,,,,,,,,,,,,,rer,001,2020_Sep_21_2335,config_feat_task,2020.2.4,None,
12,1,0,1,0,,,,,0,12,12,12,,,,,,,,,,,,,,,,,,,,,,,,,,,,,,,,198.45706800199696,198.65734365500975,198.97358281500055,199.17392962702434,0.2059769696497824,0.5059769696497824,s,0,0.6965454409946688,199.14075910500833,None,,,,,,,,,,,,,,,,,,,,,,,rer,001,2020_Sep_21_2335,config_feat_task,2020.2.4,None,
13,1,0,1,0,,,,,0,13,13,13,,,,,,,,,,,,,,,,,,,,,,,,,,,,,,,,199.85705298601533,200.05925104700145,200.38730261300225,200.59236490901094,0.20185354666318744,0.5018535466631875,d,0,0.8476834019820672,200.54240394601948,None,,,,,,,,,,,,,,,,,,,,,,,rer,001,2020_Sep_21_2335,config_feat_task,2020.2.4,None,
14,1,0,1,0,,,,,0,14,14,14,,,,,,,,,,,,,,,,,,,,,,,,,,,,,,,,201.4070332160045,201.6071981510031,201.92361119002453,202.1239020760113,0.20446468965383247,0.5044646896538325,s,0,0.975556460005464,202.09057797200512,None,,,,,,,,,,,,,,,,,,,,,,,rer,001,2020_Sep_21_2335,config_feat_task,2020.2.4,None,
15,1,0,1,0,,,,,0,15,15,15,,,,,,,,,,,,,,,,,,,,,,,,,,,,,,,,203.09048168899608,203.29055176200927,203.60692356701475,203.80721935699694,0.2021777777117677,0.5021777777117677,d,0,0.3149041179858614,203.7739133220166,None,,,,,,,,,,,,,,,,,,,,,,,rer,001,2020_Sep_21_2335,config_feat_task,2020.2.4,None,
16,1,0,1,0,,,,,0,16,16,16,,,,,,,,,,,,,,,,,,,,,,,,,,,,,,,,204.10663033201126,204.30725379599608,204.65360654101823,204.85729829702177,0.21466015768237412,0.5146601576823742,d,0,0.4978456059761811,204.79064473701874,None,,,,,,,,,,,,,,,,,,,,,,,rer,001,2020_Sep_21_2335,config_feat_task,2020.2.4,None,
17,1,0,1,0,,,,,0,17,17,17,,,,,,,,,,,,,,,,,,,,,,,,,,,,,,,,205.3072379460209,205.5093317220162,205.8375997590192,206.04253535802127,0.20328907264047302,0.5032890726404731,s,0,0.5073253870068584,205.99101057401276,None,,,,,,,,,,,,,,,,,,,,,,,rer,001,2020_Sep_21_2335,config_feat_task,2020.2.4,None,
18,1,0,1,0,,,,,0,18,18,18,,,,,,,,,,,,,,,,,,,,,,,,,,,,,,,,206.5239575910091,206.72410638199653,207.04043805101537,207.2409455779998,0.205129558686167,0.505129558686167,s,0,0.24748327900306322,207.20765535801183,None,,,,,,,,,,,,,,,,,,,,,,,rer,001,2020_Sep_21_2335,config_feat_task,2020.2.4,None,
19,1,0,1,0,,,,,0,19,19,19,,,,,,,,,,,,,,,,,,,,,,,,,,,,,,,,207.47418676302186,207.67598098801682,208.0037285760045,208.2073360500217,0.20540471366257407,0.5054047136625741,s,0,0.4042780890013091,208.159399288008,None,,,,,,,,,,,,,,,,,,,,,,,rer,001,2020_Sep_21_2335,config_feat_task,2020.2.4,None,
20,1,0,1,0,,,,,0,20,20,20,,,,,,,,,,,,,,,,,,,,,,,,,,,,,,,,208.60929840701283,209.11579277200508,209.1375606440124,209.3426486250246,0.20880425965879112,0.5088042596587912,d,0,0.6629929080081638,209.2901260710205,None,,,,,,,,,,,,,,,,,,,,,,,rer,001,2020_Sep_21_2335,config_feat_task,2020.2.4,None,
21,1,0,1,0,,,,,0,21,21,21,,,,,,,,,,,,,,,,,,,,,,,,,,,,,,,,209.97385030300939,210.17415075801546,210.49014144201647,210.69245532600326,0.20398385668522678,0.5039838566852268,s,0,1.1761269819980953,210.65891141901375,None,,,,,,,,,,,,,,,,,,,,,,,rer,001,2020_Sep_21_2335,config_feat_task,2020.2.4,None,
22,1,0,1,0,,,,,0,22,22,22,,,,,,,,,,,,,,,,,,,,,,,,,,,,,,,,211.85730926299584,212.05726948499796,212.37359456301783,212.57389420701656,0.20684463065117598,0.506844630651176,s,0,0.6582042509980965,212.5406770730042,None,,,,,,,,,,,,,,,,,,,,,,,rer,001,2020_Sep_21_2335,config_feat_task,2020.2.4,None,
23,1,0,1,0,,,,,0,23,23,23,,,,,,,,,,,,,,,,,,,,,,,,,,,,,,,,213.22404028099845,213.424157069996,213.74039061099757,213.94061601001886,0.2056299596442841,0.5056299596442841,s,0,1.3397889519983437,213.9073248450004,None,,,,,,,,,,,,,,,,,,,,,,,rer,001,2020_Sep_21_2335,config_feat_task,2020.2.4,None,
0,1,0,1,0,,,,,,,,,0,0,0,0,,,,,215.27391753700795,None,space,0.9820481319911778,215.27391753700795,None,,,,,,,,,,,,,,,,,,,,,,,,,,,,,216.29265986502287,216.79904692599666,216.82080579100875,217.02431692302343,0.2118521146767307,0.5118521146767308,d,0,1.2948191339964978,216.9758966829977,None,,,,,,,,,,,,rer,001,2020_Sep_21_2335,config_feat_task,2020.2.4,None,
1,1,0,1,0,,,,,,,,,0,1,1,1,,,,,,,,,,,,,,,,,,,,,,,,,,,,,,,,,,,,,,,218.29034080001293,218.4927336430119,218.82102869299706,219.0242898419965,0.1992705187003594,0.4992705187003594,s,0,0.571384342998499,218.97590293400572,None,,,,,,,,,,,,rer,001,2020_Sep_21_2335,config_feat_task,2020.2.4,None,
2,1,0,1,0,,,,,,,,,0,2,2,2,,,,,,,,,,,,,,,,,,,,,,,,,,,,,,,,,,,,,,,219.57420722200186,219.77429726501578,220.09039155300707,220.2924025800021,0.20514681661734357,0.5051468166173436,d,0,0.35781036800472066,220.25943720401847,None,,,,,,,,,,,,rer,001,2020_Sep_21_2335,config_feat_task,2020.2.4,None,
3,1,0,1,0,,,,,,,,,0,3,3,3,,,,,,,,,,,,,,,,,,,,,,,,,,,,,,,,,,,,,,,220.659360612015,221.1659198400157,221.1877333750017,221.39045373900444,0.21200396967469715,0.5120039696746972,s,0,0.33887136197881773,221.34271162500954,None,,,,,,,,,,,,rer,001,2020_Sep_21_2335,config_feat_task,2020.2.4,None,
4,1,0,1,0,,,,,,,,,0,4,4,4,,,,,,,,,,,,,,,,,,,,,,,,,,,,,,,,,,,,,,,221.70739965699613,221.90765903901774,222.22393635901972,222.4260143779975,0.202484766690759,0.502484766690759,d,0,0.3034122240205761,222.39277317002416,None,,,,,,,,,,,,rer,001,2020_Sep_21_2335,config_feat_task,2020.2.4,None,
5,1,0,1,0,,,,,,,,,0,5,5,5,,,,,,,,,,,,,,,,,,,,,,,,,,,,,,,,,,,,,,,222.7240239410021,222.92433530002018,223.24056583602214,223.4410081320093,0.19998559268424287,0.49998559268424286,s,0,1.5555280440021306,223.4076870860008,None,,,,,,,,,,,,rer,001,2020_Sep_21_2335,config_feat_task,2020.2.4,None,
6,1,0,1,0,,,,,,,,,0,6,6,6,,,,,,,,,,,,,,,,,,,,,,,,,,,,,,,,,,,,,,,224.99023597000632,225.19107811001595,225.50715839999611,225.70736271800706,0.1991536226705648,0.4991536226705648,d,0,1.1821452580043115,225.69073437701445,None,,,,,,,,,,,,rer,001,2020_Sep_21_2335,config_feat_task,2020.2.4,None,
7,1,0,1,0,,,,,,,,,0,7,7,7,,,,,,,,,,,,,,,,,,,,,,,,,,,,,,,,,,,,,,,226.89055303900386,227.09096180502092,227.4071205140208,227.60744325001724,0.20551555368001573,0.5055155536800158,s,0,0.9506205880024936,227.5741001740098,None,,,,,,,,,,,,rer,001,2020_Sep_21_2335,config_feat_task,2020.2.4,None,
8,1,0,1,0,,,,,,,,,0,8,8,8,,,,,,,,,,,,,,,,,,,,,,,,,,,,,,,,,,,,,,,228.54026222601533,228.74058393601445,229.0569754820026,229.25917146200663,0.20349357067607343,0.5034935706760735,d,0,0.8159924719948322,229.22591665401706,None,,,,,,,,,,,,rer,001,2020_Sep_21_2335,config_feat_task,2020.2.4,None,
9,1,0,1,0,,,,,,,,,0,9,9,9,,,,,,,,,,,,,,,,,,,,,,,,,,,,,,,,,,,,,,,230.09268057200825,230.59919763202197,230.62080711100134,230.82592168200063,0.21009995267377235,0.5100999526737724,s,0,0.8669930199976079,230.7758688890026,None,,,,,,,,,,,,rer,001,2020_Sep_21_2335,config_feat_task,2020.2.4,None,
10,1,0,1,0,,,,,,,,,0,10,10,10,,,,,,,,,,,,,,,,,,,,,,,,,,,,,,,,,,,,,,,231.67421767802443,231.87411758801318,232.19048139901133,232.39056729600998,0.20379683864302933,0.5037968386430294,s,0,1.8326313410070725,232.35766980302287,None,,,,,,,,,,,,rer,001,2020_Sep_21_2335,config_feat_task,2020.2.4,None,
11,1,0,1,0,,,,,,,,,0,11,11,11,,,,,,,,,,,,,,,,,,,,,,,,,,,,,,,,,,,,,,,234.2073892519984,234.40852313200594,234.7378246540029,234.94079132200568,0.20216268868534826,0.5021626886853483,d,0,0.8765860690036789,234.89264147900394,None,,,,,,,,,,,,rer,001,2020_Sep_21_2335,config_feat_task,2020.2.4,None,
12,1,0,1,0,,,,,,,,,0,12,12,12,,,,,,,,,,,,,,,,,,,,,,,,,,,,,,,,,,,,,,,235.8091013560188,236.31513217801694,236.33682208802202,236.54267534500104,0.21144263964379206,0.5114426396437921,s,0,0.6144938289944548,236.49059973601834,None,,,,,,,,,,,,rer,001,2020_Sep_21_2335,config_feat_task,2020.2.4,None,
13,1,0,1,0,,,,,,,,,0,13,13,13,,,,,,,,,,,,,,,,,,,,,,,,,,,,,,,,,,,,,,,237.12407616100973,237.32423673200537,237.6404299880087,237.84085815100116,0.20447128466912545,0.5044712846691255,s,0,1.4552447329915594,237.80748461201438,None,,,,,,,,,,,,rer,001,2020_Sep_21_2335,config_feat_task,2020.2.4,None,
14,1,0,1,0,,,,,,,,,0,14,14,14,,,,,,,,,,,,,,,,,,,,,,,,,,,,,,,,,,,,,,,239.29066327601322,239.49068739599898,239.80705170001602,240.0075270550151,0.205133826675592,0.505133826675592,s,0,2.1505527090048417,239.97410947902245,None,,,,,,,,,,,,rer,001,2020_Sep_21_2335,config_feat_task,2020.2.4,None,
15,1,0,1,0,,,,,,,,,0,15,15,15,,,,,,,,,,,,,,,,,,,,,,,,,,,,,,,,,,,,,,,242.15966841799673,242.35672827099916,242.67394746199716,242.87450478199753,0.21281554465531372,0.5128155446553138,s,0,1.7480589330079965,242.84113466501003,None,,,,,,,,,,,,rer,001,2020_Sep_21_2335,config_feat_task,2020.2.4,None,
16,1,0,1,0,,,,,,,,,0,16,16,16,,,,,,,,,,,,,,,,,,,,,,,,,,,,,,,,,,,,,,,244.608009743999,244.80781916499836,245.15434995200485,245.35787278899807,0.21304772965959273,0.5130477296595928,s,0,2.1123947679880075,245.309560255002,None,,,,,,,,,,,,rer,001,2020_Sep_21_2335,config_feat_task,2020.2.4,None,
17,1,0,1,0,,,,,,,,,0,17,17,17,,,,,,,,,,,,,,,,,,,,,,,,,,,,,,,,,,,,,,,247.44042175501818,247.64115618300275,247.95741100702435,248.15797979402123,0.20072487863944843,0.5007248786394485,s,0,0.22128723698551767,248.1245578789967,None,,,,,,,,,,,,rer,001,2020_Sep_21_2335,config_feat_task,2020.2.4,None,
18,1,0,1,0,,,,,,,,,0,18,18,18,,,,,,,,,,,,,,,,,,,,,,,,,,,,,,,,,,,,,,,248.37378224902204,248.57652957300888,248.90747730899602,249.10970907701994,0.21647286068764515,0.5164728606876452,s,0,0.8817745750129689,249.05789221602026,None,,,,,,,,,,,,rer,001,2020_Sep_21_2335,config_feat_task,2020.2.4,None,
19,1,0,1,0,,,,,,,,,0,19,19,19,,,,,,,,,,,,,,,,,,,,,,,,,,,,,,,,,,,,,,,249.95782113602036,250.15801540500252,250.47411713001202,250.67614351501106,0.2055323886743281,0.5055323886743281,s,0,2.329917049006326,250.64119304300402,None,,,,,,,,,,,,rer,001,2020_Sep_21_2335,config_feat_task,2020.2.4,None,
20,1,0,1,0,,,,,,,,,0,20,20,20,,,,,,,,,,,,,,,,,,,,,,,,,,,,,,,,,,,,,,,252.99096216500038,253.19125030201394,253.50753372200415,253.70795087501756,0.20409151766216382,0.5040915176621639,s,0,1.6315018419991247,253.67462989501655,None,,,,,,,,,,,,rer,001,2020_Sep_21_2335,config_feat_task,2020.2.4,None,
21,1,0,1,0,,,,,,,,,0,21,21,21,,,,,,,,,,,,,,,,,,,,,,,,,,,,,,,,,,,,,,,255.3236756590195,255.52458438501344,255.8407750420156,256.04122250401997,0.20361600467003882,0.5036160046700389,s,0,2.9932420299737714,256.0080879230227,None,,,,,,,,,,,,rer,001,2020_Sep_21_2335,config_feat_task,2020.2.4,None,
22,1,0,1,0,,,,,,,,,0,22,22,22,,,,,,,,,,,,,,,,,,,,,,,,,,,,,,,,,,,,,,,259.0243415800214,259.22456470300676,259.54076779901516,259.741330527002,0.20661189063685015,0.5066118906368502,s,0,1.0664119410212152,259.70796536499984,None,,,,,,,,,,,,rer,001,2020_Sep_21_2335,config_feat_task,2020.2.4,None,
23,1,0,1,0,,,,,,,,,0,23,23,23,,,,,,,,,,,,,,,,,,,,,,,,,,,,,,,,,,,,,,,260.7910650820122,260.9930844140181,261.3213404749986,261.52466847302276,0.20366089668823406,0.5036608966882341,d,0,0.6537556699768174,261.47629537500325,None,,,,,,,,,,,,rer,001,2020_Sep_21_2335,config_feat_task,2020.2.4,None,
0,1,0,1,0,,,,,,,,,,,,,0,0,0,0,,,,,,,,,,,,,,,,,,262.15797418300644,None,space,0.9129419520031661,262.15797418300644,None,,,,,,,,,,,,,,,,,,,,,,,263.1079223930137,263.30983146000654,263.637861160998,263.84141493201605,0.2078312226512935,0.5078312226512935,d,0,0.907664147001924,263.79333631999907,None,rer,001,2020_Sep_21_2335,config_feat_task,2020.2.4,None,
1,1,0,1,0,,,,,,,,,,,,,0,1,1,1,,,,,,,,,,,,,,,,,,,,,,,,,,,,,,,,,,,,,,,,,,,,,,264.72456475300714,264.92462614001124,265.240908451,265.44154929500655,0.2056840256555006,0.5056840256555006,d,0,0.45445699500851333,265.4081352100184,None,rer,001,2020_Sep_21_2335,config_feat_task,2020.2.4,None,
2,1,0,1,0,,,,,,,,,,,,,0,2,2,2,,,,,,,,,,,,,,,,,,,,,,,,,,,,,,,,,,,,,,,,,,,,,,265.89064887101995,266.09114296600455,266.42111236200435,266.62427730701165,0.19992147263837978,0.49992147263837977,d,0,0.4874271650041919,266.5910678500077,None,rer,001,2020_Sep_21_2335,config_feat_task,2020.2.4,None,
3,1,0,1,0,,,,,,,,,,,,,0,3,3,3,,,,,,,,,,,,,,,,,,,,,,,,,,,,,,,,,,,,,,,,,,,,,,267.1076650310133,267.3080196280207,267.6241526520171,267.82465251901885,0.201789534650743,0.501789534650743,s,0,0.3999046550015919,267.7913074560056,None,rer,001,2020_Sep_21_2335,config_feat_task,2020.2.4,None,
4,1,0,1,0,,,,,,,,,,,,,0,4,4,4,,,,,,,,,,,,,,,,,,,,,,,,,,,,,,,,,,,,,,,,,,,,,,268.20771059702383,268.40957467100816,268.7379133810173,268.9410097960208,0.20293126566684805,0.5029312656668481,s,0,0.5061425439780578,268.8930623360211,None,rer,001,2020_Sep_21_2335,config_feat_task,2020.2.4,None,
5,1,0,1,0,,,,,,,,,,,,,0,5,5,5,,,,,,,,,,,,,,,,,,,,,,,,,,,,,,,,,,,,,,,,,,,,,,269.424257280014,269.62446171601187,269.940665238013,270.14110396499746,0.204689778649481,0.5046897786494811,s,0,0.3758694230054971,270.10778917200514,None,rer,001,2020_Sep_21_2335,config_feat_task,2020.2.4,None,
6,1,0,1,0,,,,,,,,,,,,,0,6,6,6,,,,,,,,,,,,,,,,,,,,,,,,,,,,,,,,,,,,,,,,,,,,,,270.5073321330128,270.70787420502165,271.02415965902037,271.2245818290103,0.20310948666883633,0.5031094866688364,d,0,0.34629344497807324,271.19131753902184,None,rer,001,2020_Sep_21_2335,config_feat_task,2020.2.4,None,
7,1,0,1,0,,,,,,,,,,,,,0,7,7,7,,,,,,,,,,,,,,,,,,,,,,,,,,,,,,,,,,,,,,,,,,,,,,271.55777846300043,271.7579489860218,272.07416577701224,272.2745769400208,0.2061835786444135,0.5061835786444135,d,0,0.5111529460118618,272.24131597200176,None,rer,001,2020_Sep_21_2335,config_feat_task,2020.2.4,None,
8,1,0,1,0,,,,,,,,,,,,,0,8,8,8,,,,,,,,,,,,,,,,,,,,,,,,,,,,,,,,,,,,,,,,,,,,,,272.77437025500694,272.97448026100756,273.2908239410026,273.4911707639985,0.20397784866509028,0.5039778486650903,s,0,0.46754874900216237,273.45783140300773,None,rer,001,2020_Sep_21_2335,config_feat_task,2020.2.4,None,
9,1,0,1,0,,,,,,,,,,,,,0,9,9,9,,,,,,,,,,,,,,,,,,,,,,,,,,,,,,,,,,,,,,,,,,,,,,273.95735400900594,274.1596079010051,274.49088392499834,274.6932125360181,0.21732722566230223,0.5173272256623023,s,0,0.4446484590007458,274.6596235060133,None,rer,001,2020_Sep_21_2335,config_feat_task,2020.2.4,None,
10,1,0,1,0,,,,,,,,,,,,,0,10,10,10,,,,,,,,,,,,,,,,,,,,,,,,,,,,,,,,,,,,,,,,,,,,,,275.1240751930163,275.324569643999,275.6408713640121,275.8433412760205,0.20264056263840757,0.5026405626384076,s,0,0.32830607099458575,275.8096262910112,None,rer,001,2020_Sep_21_2335,config_feat_task,2020.2.4,None,
11,1,0,1,0,,,,,,,,,,,,,0,11,11,11,,,,,,,,,,,,,,,,,,,,,,,,,,,,,,,,,,,,,,,,,,,,,,276.15768790701986,276.359201173007,276.68712237500586,276.89121254501515,0.20226330863079056,0.5022633086307906,d,0,0.6625911949959118,276.8430716060102,None,rer,001,2020_Sep_21_2335,config_feat_task,2020.2.4,None,
12,1,0,1,0,,,,,,,,,,,,,0,12,12,12,,,,,,,,,,,,,,,,,,,,,,,,,,,,,,,,,,,,,,,,,,,,,,277.52431932502077,277.7263705130026,278.0548702230153,278.2579677150061,0.20444250362925231,0.5044425036292524,s,0,0.2579748249845579,278.20961268100655,None,rer,001,2020_Sep_21_2335,config_feat_task,2020.2.4,None,
13,1,0,1,0,,,,,,,,,,,,,0,13,13,13,,,,,,,,,,,,,,,,,,,,,,,,,,,,,,,,,,,,,,,,,,,,,,278.49058287299704,278.69310431802296,279.0212837459985,279.2242896420066,0.19960472665843554,0.4996047266584355,s,0,0.3935631139902398,279.1764106260089,None,rer,001,2020_Sep_21_2335,config_feat_task,2020.2.4,None,
14,1,0,1,0,,,,,,,,,,,,,0,14,14,14,,,,,,,,,,,,,,,,,,,,,,,,,,,,,,,,,,,,,,,,,,,,,,279.5911357300065,279.79125799800386,280.1075855969975,280.30782006602385,0.2055166687059682,0.5055166687059682,s,0,0.47548178301076405,280.2744957980176,None,rer,001,2020_Sep_21_2335,config_feat_task,2020.2.4,None,
15,1,0,1,0,,,,,,,,,,,,,0,15,15,15,,,,,,,,,,,,,,,,,,,,,,,,,,,,,,,,,,,,,,,,,,,,,,280.77475403100834,280.97490419301903,281.29088941501686,281.4914744090056,0.1995253266650252,0.4995253266650252,s,0,0.3880389149999246,281.45825790200615,None,rer,001,2020_Sep_21_2335,config_feat_task,2020.2.4,None,
16,1,0,1,0,,,,,,,,,,,,,0,16,16,16,,,,,,,,,,,,,,,,,,,,,,,,,,,,,,,,,,,,,,,,,,,,,,281.8745605669974,282.07481568300864,282.391064002004,282.5914854010043,0.20282733868225478,0.5028273386822548,d,0,0.3647646900208201,282.5578601900197,None,rer,001,2020_Sep_21_2335,config_feat_task,2020.2.4,None,
17,1,0,1,0,,,,,,,,,,,,,0,17,17,17,,,,,,,,,,,,,,,,,,,,,,,,,,,,,,,,,,,,,,,,,,,,,,282.94113110000035,283.1414650710067,283.457770722016,283.65819405400543,0.20544677565339953,0.5054467756533996,s,0,0.4278277270204853,283.62474331402336,None,rer,001,2020_Sep_21_2335,config_feat_task,2020.2.4,None,
18,1,0,1,0,,,,,,,,,,,,,0,18,18,18,,,,,,,,,,,,,,,,,,,,,,,,,,,,,,,,,,,,,,,,,,,,,,284.0745816180133,284.2760914780083,284.6053126339975,284.80983892301447,0.20436655366211198,0.504366553662112,s,0,0.49367740299203433,284.75811069700285,None,rer,001,2020_Sep_21_2335,config_feat_task,2020.2.4,None,
19,1,0,1,0,,,,,,,,,,,,,0,19,19,19,,,,,,,,,,,,,,,,,,,,,,,,,,,,,,,,,,,,,,,,,,,,,,285.2742219759966,285.47491922500194,285.7909727320075,285.99140101802186,0.2074758246599231,0.5074758246599231,d,0,0.30262738102464937,285.9578632080229,None,rer,001,2020_Sep_21_2335,config_feat_task,2020.2.4,None,
20,1,0,1,0,,,,,,,,,,,,,0,20,20,20,,,,,,,,,,,,,,,,,,,,,,,,,,,,,,,,,,,,,,,,,,,,,,286.2907101350138,286.4911711990135,286.8380612800247,287.04139504101477,0.21467531064990908,0.5146753106499091,s,0,0.475764667004114,286.9746908110101,None,rer,001,2020_Sep_21_2335,config_feat_task,2020.2.4,None,
21,1,0,1,0,,,,,,,,,,,,,0,21,21,21,,,,,,,,,,,,,,,,,,,,,,,,,,,,,,,,,,,,,,,,,,,,,,287.474815537018,287.6764558540017,288.0075864160026,288.20792815400637,0.21617351565510035,0.5161735156551004,d,0,0.30304681000416167,288.17456746002426,None,rer,001,2020_Sep_21_2335,config_feat_task,2020.2.4,None,
22,1,0,1,0,,,,,,,,,,,,,0,22,22,22,,,,,,,,,,,,,,,,,,,,,,,,,,,,,,,,,,,,,,,,,,,,,,288.50738195399754,288.7079028880107,289.024277154007,289.22455910101417,0.2004375956603326,0.5004375956603326,d,0,0.8936916250095237,289.1912913560227,None,rer,001,2020_Sep_21_2335,config_feat_task,2020.2.4,None,
23,1,0,1,0,,,,,,,,,,,,,0,23,23,23,,,,,,,,,,,,,,,,,,,,,,,,,,,,,,,,,,,,,,,,,,,,,,290.1078883430164,290.3078895380022,290.62438973700046,290.82474349901895,0.20612237468594685,0.5061223746859469,s,0,0.5006726130086463,290.7915640590072,None,rer,001,2020_Sep_21_2335,config_feat_task,2020.2.4,None,
,1,0,1,0,,,,,,,,,,,,,,,,,,,,,,,,,,,,,,,,,,,,,,,,,,,,,,,,,,,,,,,,,,,,,,,,,,,,,,,,,rer,001,2020_Sep_21_2335,config_feat_task,2020.2.4,None,
