trialNum,trials.thisRepN,trials.thisTrialN,trials.thisN,trials.thisIndex,start_instructions.started,start_instructions.stopped,target_image.started,target_image.stopped,probe_image.started,probe_image.stopped,key_resp_2.keys,key_resp_2.corr,key_resp_2.rt,key_resp_2.started,key_resp_2.stopped,ISI.started,ISI.stopped,participant,session,date,expName,psychopyVersion,frameRate,
0,0,0,0,0,12.840419381012907,None,14.46517568200943,14.665166028018575,14.9956256650039,15.198455903009744,s,0,0.8693501290108543,15.165143496997189,None,0.7017570106836502,1.0017570106836502,test,001,2020_Sep_21_1929,configural_featural,2020.2.4,59.89736729355391,
1,0,1,1,1,,,16.56514141400112,16.76711840799544,17.081485128001077,17.28218517001369,d,1,0.696942297014175,17.248816130013438,None,0.7168254939024337,1.0168254939024337,test,001,2020_Sep_21_1929,configural_featural,2020.2.4,59.89736729355391,
2,0,2,2,2,,,18.44886286300607,18.648802330018952,18.981670071021654,19.18402012399747,s,1,0.47071235699695535,19.165441529010423,None,0.716462594922632,1.016462594922632,test,001,2020_Sep_21_1929,configural_featural,2020.2.4,59.89736729355391,
3,0,3,3,3,,,20.166992640995886,20.382066796999425,20.681644602009328,20.8820998200099,d,1,0.4475893240014557,20.867107211000985,None,0.7145581219228916,1.0145581219228916,test,001,2020_Sep_21_1929,configural_featural,2020.2.4,59.89736729355391,
4,0,4,4,4,,,21.815582531999098,22.017152842017822,22.331613172020297,22.53225456501241,s,1,0.21319632799713872,22.517156050016638,None,0.7051632619113661,1.0051632619113662,test,001,2020_Sep_21_1929,configural_featural,2020.2.4,59.89736729355391,
5,0,5,5,5,,,23.23391843601712,23.448962880996987,23.748468124016654,23.948943181021605,s,1,0.4888600289996248,23.933776159014087,None,0.7073015359055717,1.0073015359055717,test,001,2020_Sep_21_1929,configural_featural,2020.2.4,59.89736729355391,
6,0,6,6,6,,,24.932302350003738,25.133885518007446,25.448518885008525,25.650484028010396,d,1,0.18211801900179125,25.632234193006298,None,0.7035517279000487,1.0035517279000488,test,001,2020_Sep_21_1929,configural_featural,2020.2.4,59.89736729355391,
7,0,7,7,7,,,26.315541176008992,26.517235578998225,26.831506546004675,27.03221451601712,s,1,0.14394283198635094,27.016982822999125,None,0.703067685913993,1.003067685913993,test,001,2020_Sep_21_1929,configural_featural,2020.2.4,59.89736729355391,
8,0,8,8,8,,,27.667198676004773,27.881989995017648,28.181550330016762,28.381954520009458,s,1,0.3439855230099056,28.367309846013086,None,0.7075218429381493,1.0075218429381494,test,001,2020_Sep_21_1929,configural_featural,2020.2.4,59.89736729355391,
9,0,9,9,9,,,29.215385602001334,29.415553191996878,29.745786084997235,29.94863643401186,d,1,0.3391938809945714,29.91518571501365,None,0.699978026910685,0.999978026910685,test,001,2020_Sep_21_1929,configural_featural,2020.2.4,59.89736729355391,
10,0,10,10,10,,,30.78216997999698,30.981987452018075,31.281794976996025,31.48193561201333,s,1,0.7260597470158245,31.48193561201333,None,0.6990071509499103,0.9990071509499103,test,001,2020_Sep_21_1929,configural_featural,2020.2.4,59.89736729355391,
11,0,11,11,11,,,32.73239516900503,32.93205292001949,33.26243551902007,33.46556685201358,s,0,3.1047950070060324,33.432272828009445,None,0.7136069978587329,1.013606997858733,test,001,2020_Sep_21_1929,configural_featural,2020.2.4,59.89736729355391,
12,0,12,12,12,,,37.048974214994814,37.25072332500713,37.565295128006255,37.765645182022126,d,1,0.5429129509720951,37.75064867999754,None,0.7082125999149866,1.0082125999149867,test,001,2020_Sep_21_1929,configural_featural,2020.2.4,59.89736729355391,
13,0,13,13,13,,,38.80076664700755,39.01560430999962,39.3152564560005,39.51576179100084,d,0,0.27026047100662254,39.50110545501229,None,0.7035272039065603,1.0035272039065604,test,001,2020_Sep_21_1929,configural_featural,2020.2.4,59.89736729355391,
14,0,14,14,14,,,40.28393235700787,40.498995975009166,40.79862222401425,40.999025413009804,s,0,0.3236955830070656,40.984125276998384,None,0.7029316489351913,1.0029316489351914,test,001,2020_Sep_21_1929,configural_featural,2020.2.4,59.89736729355391,
15,0,15,15,15,,,41.81745181401493,42.03245826999773,42.33201157199801,42.531647723022616,s,0,1.3800050989957526,42.51703928800998,None,0.7043250909191556,1.0043250909191557,test,001,2020_Sep_21_1929,configural_featural,2020.2.4,59.89736729355391,
16,0,16,16,16,,,44.39903267601039,44.59903428700636,44.92923634001636,45.13236455700826,s,1,0.4587126449914649,45.09914621702046,None,0.7015464318974409,1.001546431897441,test,001,2020_Sep_21_1929,configural_featural,2020.2.4,59.89736729355391,
17,0,17,17,17,,,46.067394532001344,46.282370243017795,46.582050148019334,46.782358902011765,d,0,0.8044215079862624,46.76746838100371,None,0.7043847609020304,1.0043847609020304,test,001,2020_Sep_21_1929,configural_featural,2020.2.4,59.89736729355391,
18,0,18,18,18,,,48.08241294801701,48.282403204997536,48.61263223699643,48.81735845000367,d,1,0.6386215120146517,48.782417841022834,None,0.6998703909048345,0.9998703909048345,test,001,2020_Sep_21_1929,configural_featural,2020.2.4,59.89736729355391,
19,0,19,19,19,,,49.94897395200678,50.14904372202,50.47928394700284,50.68248880901956,s,1,0.6180643849947955,50.64920902100857,None,0.7125357839104254,1.0125357839104254,test,001,2020_Sep_21_1929,configural_featural,2020.2.4,59.89736729355391,
20,0,20,20,20,,,51.76592436700594,51.96589892799966,52.29595262100338,52.49913788802223,d,1,0.3770839989883825,52.465905022021616,None,0.6997962868772447,0.9997962868772448,test,001,2020_Sep_21_1929,configural_featural,2020.2.4,59.89736729355391,
21,0,21,21,21,,,53.35078762899502,53.5658803130209,53.86545520400978,54.065759567019995,s,0,0.6035208760004025,54.050769176014,None,0.7067629489174578,1.0067629489174579,test,001,2020_Sep_21_1929,configural_featural,2020.2.4,59.89736729355391,
22,0,22,22,22,,,55.16581822599983,55.365747816016665,55.69854355001007,55.89914248001878,d,1,0.7783542489924002,55.86592683100025,None,0.7164632098865695,1.0164632098865696,test,001,2020_Sep_21_1929,configural_featural,2020.2.4,59.89736729355391,
23,0,23,23,23,,,57.150833760009846,57.3657553740195,57.665475421003066,57.86589870302123,s,1,0.8753351139894221,57.850893876020564,None,0.7042850438738242,1.0042850438738242,test,001,2020_Sep_21_1929,configural_featural,2020.2.4,59.89736729355391,
