X Scale,Y Scale,prePrac1Resp.keys,prePrac1Resp.corr,prePrac1Resp.rt,key_resp_10.keys,key_resp_10.corr,key_resp_13.keys,key_resp_13.corr,pfix_switches,Pside,ptrial_type1S0D,ptarget,pprobe,prac_resp.keys,prac_resp.corr,prac_resp.rt,prac_fix_resp.keys,prac_fix_resp.corr,pTrials.thisRepN,pTrials.thisTrialN,pTrials.thisN,pTrials.thisIndex,pTrials.ran,participant,design,position,date,expName,psychopyVersion,OS,frameRate,xResolution,yResolution,prac_fix_resp.rt,fix_switches,side,trial_type1S0D,target,probe,key_resp_3.keys,key_resp_4.keys,key_resp_5.keys,key_resp.keys,key_resp.corr,key_resp.rt,key_resp_6.keys,trials.thisRepN,trials.thisTrialN,trials.thisN,trials.thisIndex,trials.ran,key_resp_6.rt,blocks.thisRepN,blocks.thisTrialN,blocks.thisN,blocks.thisIndex,blocks.ran,block_type,instruction_text,key_resp_4.rt0.0302,0.0302,j,1,11.26516,,0,,0,0,0.07839316,0,Stimuli/dory1.png,Stimuli/dory1.png,f,1,1.72035,,1,0,0,0,0,1,AL,1,2,2020-11-06_04h28.09.977,configural_featural,2020.2.4,MacIntel,60,2560,1440,,,,,,,,,,,,,,,,,,,,,,,,,,,,,,,,,,,,0,0.07839316,1,Stimuli/nemo1.jpg,Stimuli/nemo2.png,j,1,2.015775,,1,1,0,1,0,1,AL,1,2,2020-11-06_04h28.09.977,configural_featural,2020.2.4,MacIntel,60,2560,1440,,,,,,,,,,,,,,,,,,,,,,,,,,,,,,,,,,,,0,0.07839316,1,Stimuli/nemo2.png,Stimuli/nemo1.jpg,j,1,0.752915,,1,2,0,2,0,1,AL,1,2,2020-11-06_04h28.09.977,configural_featural,2020.2.4,MacIntel,60,2560,1440,,,,,,,,,,,,,,,,,,,,,,,,,,,,,,,,,,,,1,0.07839316,0,Stimuli/dory2.png,Stimuli/dory2.png,f,1,0.687325,space,1,3,0,3,0,1,AL,1,2,2020-11-06_04h28.09.977,configural_featural,2020.2.4,MacIntel,60,2560,1440,2.71118,,,,,,,,,,,,,,,,,,,,,,,,,,,,,,,,,,,0,0.07839316,1,Stimuli/nemo1.jpg,Stimuli/nemo2.png,j,1,1.30336,,1,4,0,4,0,1,AL,1,2,2020-11-06_04h28.09.977,configural_featural,2020.2.4,MacIntel,60,2560,1440,,,,,,,,,,,,,,,,,,,,,,,,,,,,,,,,,,,,0,-0.07839316,1,Stimuli/dory2.png,Stimuli/dory1.png,f,0,3.401905,,1,5,0,5,0,1,AL,1,2,2020-11-06_04h28.09.977,configural_featural,2020.2.4,MacIntel,60,2560,1440,,,,,,,,,,,,,,,,,,,,,,,,,,,,,,,,,,,,1,-0.07839316,1,Stimuli/dory1.png,Stimuli/dory2.png,j,1,1.134315,,0,6,0,6,0,1,AL,1,2,2020-11-06_04h28.09.977,configural_featural,2020.2.4,MacIntel,60,2560,1440,,,,,,,,,,,,,,,,,,,,,,,,,,,,,,,,,,,,0,0.07839316,0,Stimuli/nemo2.png,Stimuli/nemo2.png,j,0,1.38301,,1,7,0,7,0,1,AL,1,2,2020-11-06_04h28.09.977,configural_featural,2020.2.4,MacIntel,60,2560,1440,,,,,,,,,,,,,,,,,,,,,,,,,,,,,,,,,,,,0,-0.07839316,0,Stimuli/nemo2.png,Stimuli/nemo2.png,f,1,1.60616,,1,8,0,8,0,1,AL,1,2,2020-11-06_04h28.09.977,configural_featural,2020.2.4,MacIntel,60,2560,1440,,,,,,,,,,,,,,,,,,,,,,,,,,,,,,,,,,,,1,-0.07839316,0,Stimuli/nemo1.jpg,Stimuli/nemo1.jpg,f,1,0.479365,space,1,9,0,9,0,1,AL,1,2,2020-11-06_04h28.09.977,configural_featural,2020.2.4,MacIntel,60,2560,1440,1.034025,,,,,,,,,,,,,,,,,,,,,,,,,,,,,,,,,,,0,-0.07839316,0,Stimuli/dory2.png,Stimuli/dory2.png,f,1,0.667415,space,0,10,0,10,0,1,AL,1,2,2020-11-06_04h28.09.977,configural_featural,2020.2.4,MacIntel,60,2560,1440,1.50993,,,,,,,,,,,,,,,,,,,,,,,,,,,,,,,,,,,0,-0.07839316,1,Stimuli/dory1.png,Stimuli/dory2.png,j,1,1.76802,,1,11,0,11,0,1,AL,1,2,2020-11-06_04h28.09.977,configural_featural,2020.2.4,MacIntel,60,2560,1440,,,,,,,,,,,,,,,,,,,,,,,,,,,,,,,,,,,,,,,,,,,,,,,,,,,AL,1,2,2020-11-06_04h28.09.977,configural_featural,2020.2.4,MacIntel,60,2560,1440,,0,0.10446784,1,Stimuli/edmd.png,Stimuli/edmd.png,,,,j,0,2.251915,,0,0,0,0,1,,,,,,,conf_face,,,,,,,,,,,,,,,,,,,,,,,,,,AL,1,2,2020-11-06_04h28.09.977,configural_featural,2020.2.4,MacIntel,60,2560,1440,,0,-0.10446784,0,Stimuli/eomu.png,Stimuli/eumu.png,,,,f,0,0.53115,,1,0,1,0,1,,,,,,,conf_face,,,,,,,,,,,,,,,,,,,,,,,,,,AL,1,2,2020-11-06_04h28.09.977,configural_featural,2020.2.4,MacIntel,60,2560,1440,,0,0.10446784,0,Stimuli/eimd.png,Stimuli/eomu.png,,,,f,0,0.969215,,2,0,2,0,1,,,,,,,conf_face,,,,,,,,,,,,,,,,,,,,,,,,,,AL,1,2,2020-11-06_04h28.09.977,configural_featural,2020.2.4,MacIntel,60,2560,1440,,0,-0.10446784,1,Stimuli/eomu.png,Stimuli/eomu.png,,,,f,1,0.547905,,3,0,3,0,1,,,,,,,conf_face,,,,,,,,,,,,,,,,,,,,,,,,,,AL,1,2,2020-11-06_04h28.09.977,configural_featural,2020.2.4,MacIntel,60,2560,1440,,0,0.10446784,1,Stimuli/eumu.png,Stimuli/eumu.png,,,,f,1,0.639485,,4,0,4,0,1,,,,,,,conf_face,,,,,,,,,,,,,,,,,,,,,,,,,,AL,1,2,2020-11-06_04h28.09.977,configural_featural,2020.2.4,MacIntel,60,2560,1440,,0,0.10446784,0,Stimuli/edmd.png,Stimuli/eimd.png,,,,f,0,0.40927,,5,0,5,0,1,,,,,,,conf_face,,,,,,,,,,,,,,,,,,,,,,,,,,AL,1,2,2020-11-06_04h28.09.977,configural_featural,2020.2.4,MacIntel,60,2560,1440,,0,0.10446784,0,Stimuli/eumu.png,Stimuli/edmd.png,,,,f,0,0.498735,,6,0,6,0,1,,,,,,,conf_face,,,,,,,,,,,,,,,,,,,,,,,,,,AL,1,2,2020-11-06_04h28.09.977,configural_featural,2020.2.4,MacIntel,60,2560,1440,,0,0.10446784,0,Stimuli/eimd.png,Stimuli/eumu.png,,,,f,0,0.577075,,7,0,7,0,1,,,,,,,conf_face,,,,,,,,,,,,,,,,,,,,,,,,,,AL,1,2,2020-11-06_04h28.09.977,configural_featural,2020.2.4,MacIntel,60,2560,1440,,1,-0.10446784,0,Stimuli/eimd.png,Stimuli/edmd.png,,,,f,0,1.47449,space,8,0,8,0,1,0.753425,,,,,,conf_face,,,,,,,,,,,,,,,,,,,,,,,,,,AL,1,2,2020-11-06_04h28.09.977,configural_featural,2020.2.4,MacIntel,60,2560,1440,,0,-0.10446784,1,Stimuli/eumu.png,Stimuli/eumu.png,,,,f,1,0.47499,,9,0,9,0,1,,,,,,,conf_face,,,,,,,,,,,,,,,,,,,,,,,,,,AL,1,2,2020-11-06_04h28.09.977,configural_featural,2020.2.4,MacIntel,60,2560,1440,,1,-0.10446784,1,Stimuli/edmd.png,Stimuli/edmd.png,,,,f,1,2.243515,space,10,0,10,0,1,1.066905,,,,,,conf_face,,,,,,,,,,,,,,,,,,,,,,,,,,AL,1,2,2020-11-06_04h28.09.977,configural_featural,2020.2.4,MacIntel,60,2560,1440,,0,-0.10446784,1,Stimuli/eimd.png,Stimuli/eimd.png,,,,f,1,0.64546,,11,0,11,0,1,,,,,,,conf_face,,,,,,,,,,,,,,,,,,,,,,,,,,AL,1,2,2020-11-06_04h28.09.977,configural_featural,2020.2.4,MacIntel,60,2560,1440,,1,0.10446784,1,Stimuli/eomu.png,Stimuli/eomu.png,,,,f,1,3.846155,space,12,0,12,0,1,1.261565,,,,,,conf_face,,,,,,,,,,,,,,,,,,,,,,,,,,AL,1,2,2020-11-06_04h28.09.977,configural_featural,2020.2.4,MacIntel,60,2560,1440,,0,0.10446784,0,Stimuli/edmd.png,Stimuli/eomu.png,,,,j,1,0.731685,,13,0,13,0,1,,,,,,,conf_face,,,,,,,,,,,,,,,,,,,,,,,,,,AL,1,2,2020-11-06_04h28.09.977,configural_featural,2020.2.4,MacIntel,60,2560,1440,,0,0.10446784,0,Stimuli/eomu.png,Stimuli/eimd.png,,,,f,0,0.83642,,14,0,14,0,1,,,,,,,conf_face,,,,,,,,,,,,,,,,,,,,,,,,,,AL,1,2,2020-11-06_04h28.09.977,configural_featural,2020.2.4,MacIntel,60,2560,1440,,0,0.10446784,0,Stimuli/eimd.png,Stimuli/edmd.png,,,,j,1,0.83659,,15,0,15,0,1,,,,,,,conf_face,,,,,,,,,,,,,,,,,,,,,,,,,,AL,1,2,2020-11-06_04h28.09.977,configural_featural,2020.2.4,MacIntel,60,2560,1440,,0,-0.10446784,1,Stimuli/edmd.png,Stimuli/edmd.png,,,,f,1,0.80578,,16,0,16,0,1,,,,,,,conf_face,,,,,,,,,,,,,,,,,,,,,,,,,,AL,1,2,2020-11-06_04h28.09.977,configural_featural,2020.2.4,MacIntel,60,2560,1440,,0,-0.10446784,1,Stimuli/eomu.png,Stimuli/eomu.png,,,,f,1,0.56623,,17,0,17,0,1,,,,,,,conf_face,,,,,,,,,,,,,,,,,,,,,,,,,,AL,1,2,2020-11-06_04h28.09.977,configural_featural,2020.2.4,MacIntel,60,2560,1440,,0,-0.10446784,1,Stimuli/eimd.png,Stimuli/eimd.png,,,,j,0,1.00927,,18,0,18,0,1,,,,,,,conf_face,,,,,,,,,,,,,,,,,,,,,,,,,,AL,1,2,2020-11-06_04h28.09.977,configural_featural,2020.2.4,MacIntel,60,2560,1440,,0,0.10446784,0,Stimuli/eumu.png,Stimuli/eimd.png,,,,j,1,1.18664,,19,0,19,0,1,,,,,,,conf_face,,,,,,,,,,,,,,,,,,,,,,,,,,AL,1,2,2020-11-06_04h28.09.977,configural_featural,2020.2.4,MacIntel,60,2560,1440,,0,0.10446784,1,Stimuli/eimd.png,Stimuli/eimd.png,,,,j,0,0.637755,,20,0,20,0,1,,,,,,,conf_face,,,,,,,,,,,,,,,,,,,,,,,,,,AL,1,2,2020-11-06_04h28.09.977,configural_featural,2020.2.4,MacIntel,60,2560,1440,,1,-0.10446784,0,Stimuli/eumu.png,Stimuli/eimd.png,,,,f,0,0.637655,space,21,0,21,0,1,0.365205,,,,,,conf_face,,,,,,,,,,,,,,,,,,,,,,,,,,AL,1,2,2020-11-06_04h28.09.977,configural_featural,2020.2.4,MacIntel,60,2560,1440,,0,0.10446784,0,Stimuli/eumu.png,Stimuli/eomu.png,,,,f,0,1.2694,,22,0,22,0,1,,,,,,,conf_face,,,,,,,,,,,,,,,,,,,,,,,,,,AL,1,2,2020-11-06_04h28.09.977,configural_featural,2020.2.4,MacIntel,60,2560,1440,,0,-0.10446784,1,Stimuli/eumu.png,Stimuli/eumu.png,,,,f,1,0.620745,,23,0,23,0,1,,,,,,,conf_face,,,,,,,,,,,,,,,,,,,,,,,,,,AL,1,2,2020-11-06_04h28.09.977,configural_featural,2020.2.4,MacIntel,60,2560,1440,,0,-0.10446784,0,Stimuli/edmd.png,Stimuli/eomu.png,,,,f,0,0.69907,,24,0,24,0,1,,,,,,,conf_face,,,,,,,,,,,,,,,,,,,,,,,,,,AL,1,2,2020-11-06_04h28.09.977,configural_featural,2020.2.4,MacIntel,60,2560,1440,,0,-0.10446784,0,Stimuli/eimd.png,Stimuli/eomu.png,,,,j,1,0.700865,,25,0,25,0,1,,,,,,,conf_face,,,,,,,,,,,,,,,,,,,,,,,,,,AL,1,2,2020-11-06_04h28.09.977,configural_featural,2020.2.4,MacIntel,60,2560,1440,,0,0.10446784,1,Stimuli/eomu.png,Stimuli/eomu.png,,,,j,0,0.77758,,26,0,26,0,1,,,,,,,conf_face,,,,,,,,,,,,,,,,,,,,,,,,,,AL,1,2,2020-11-06_04h28.09.977,configural_featural,2020.2.4,MacIntel,60,2560,1440,,0,0.10446784,1,Stimuli/edmd.png,Stimuli/edmd.png,,,,j,0,0.821175,,27,0,27,0,1,,,,,,,conf_face,,,,,,,,,,,,,,,,,,,,,,,,,,AL,1,2,2020-11-06_04h28.09.977,configural_featural,2020.2.4,MacIntel,60,2560,1440,,0,-0.10446784,1,Stimuli/eumu.png,Stimuli/eumu.png,,,,f,1,0.63097,,28,0,28,0,1,,,,,,,conf_face,,,,,,,,,,,,,,,,,,,,,,,,,,AL,1,2,2020-11-06_04h28.09.977,configural_featural,2020.2.4,MacIntel,60,2560,1440,,0,0.10446784,0,Stimuli/eomu.png,Stimuli/eumu.png,,,,j,1,0.66497,,29,0,29,0,1,,,,,,,conf_face,,,,,,,,,,,,,,,,,,,,,,,,,,AL,1,2,2020-11-06_04h28.09.977,configural_featural,2020.2.4,MacIntel,60,2560,1440,,1,-0.10446784,0,Stimuli/eomu.png,Stimuli/eimd.png,,,,f,0,0.71711,space,30,0,30,0,1,0.41354,,,,,,conf_face,,,,,,,,,,,,,,,,,,,,,,,,,,AL,1,2,2020-11-06_04h28.09.977,configural_featural,2020.2.4,MacIntel,60,2560,1440,,0,0.10446784,1,Stimuli/eumu.png,Stimuli/eumu.png,,,,f,1,1.233935,,31,0,31,0,1,,,,,,,conf_face,,,,,,,,,,,,,,,,,,,,,,,,,,AL,1,2,2020-11-06_04h28.09.977,configural_featural,2020.2.4,MacIntel,60,2560,1440,,0,-0.10446784,0,Stimuli/eomu.png,Stimuli/edmd.png,,,,j,1,1.13118,,32,0,32,0,1,,,,,,,conf_face,,,,,,,,,,,,,,,,,,,,,,,,,,AL,1,2,2020-11-06_04h28.09.977,configural_featural,2020.2.4,MacIntel,60,2560,1440,,0,-0.10446784,0,Stimuli/eumu.png,Stimuli/edmd.png,,,,f,0,1.00757,,33,0,33,0,1,,,,,,,conf_face,,,,,,,,,,,,,,,,,,,,,,,,,,AL,1,2,2020-11-06_04h28.09.977,configural_featural,2020.2.4,MacIntel,60,2560,1440,,0,0.10446784,1,Stimuli/eimd.png,Stimuli/eimd.png,,,,j,0,0.816755,,34,0,34,0,1,,,,,,,conf_face,,,,,,,,,,,,,,,,,,,,,,,,,,AL,1,2,2020-11-06_04h28.09.977,configural_featural,2020.2.4,MacIntel,60,2560,1440,,1,0.10446784,1,Stimuli/eumu.png,Stimuli/eumu.png,,,,f,1,1.667305,space,35,0,35,0,1,1.34642,,,,,,conf_face,,,,,,,,,,,,,,,,,,,,,,,,,,AL,1,2,2020-11-06_04h28.09.977,configural_featural,2020.2.4,MacIntel,60,2560,1440,,0,-0.10446784,1,Stimuli/eomu.png,Stimuli/eomu.png,,,,j,0,1.33269,,36,0,36,0,1,,,,,,,conf_face,,,,,,,,,,,,,,,,,,,,,,,,,,AL,1,2,2020-11-06_04h28.09.977,configural_featural,2020.2.4,MacIntel,60,2560,1440,,0,0.10446784,0,Stimuli/eomu.png,Stimuli/edmd.png,,,,j,1,0.870005,,37,0,37,0,1,,,,,,,conf_face,,,,,,,,,,,,,,,,,,,,,,,,,,AL,1,2,2020-11-06_04h28.09.977,configural_featural,2020.2.4,MacIntel,60,2560,1440,,0,-0.10446784,0,Stimuli/eumu.png,Stimuli/eomu.png,,,,f,0,0.446035,,38,0,38,0,1,,,,,,,conf_face,,,,,,,,,,,,,,,,,,,,,,,,,,AL,1,2,2020-11-06_04h28.09.977,configural_featural,2020.2.4,MacIntel,60,2560,1440,,0,0.10446784,1,Stimuli/eomu.png,Stimuli/eomu.png,,,,j,0,1.90319,,39,0,39,0,1,,,,,,,conf_face,,,,,,,,,,,,,,,,,,,,,,,,,,AL,1,2,2020-11-06_04h28.09.977,configural_featural,2020.2.4,MacIntel,60,2560,1440,,0,-0.10446784,0,Stimuli/edmd.png,Stimuli/eumu.png,,,,f,0,1.611445,,40,0,40,0,1,,,,,,,conf_face,,,,,,,,,,,,,,,,,,,,,,,,,,AL,1,2,2020-11-06_04h28.09.977,configural_featural,2020.2.4,MacIntel,60,2560,1440,,0,-0.10446784,1,Stimuli/edmd.png,Stimuli/edmd.png,,,,j,0,0.57218,,41,0,41,0,1,,,,,,,conf_face,,,,,,,,,,,,,,,,,,,,,,,,,,AL,1,2,2020-11-06_04h28.09.977,configural_featural,2020.2.4,MacIntel,60,2560,1440,,0,0.10446784,1,Stimuli/eimd.png,Stimuli/eimd.png,,,,j,0,0.718555,,42,0,42,0,1,,,,,,,conf_face,,,,,,,,,,,,,,,,,,,,,,,,,,AL,1,2,2020-11-06_04h28.09.977,configural_featural,2020.2.4,MacIntel,60,2560,1440,,0,0.10446784,0,Stimuli/edmd.png,Stimuli/eumu.png,,,,j,1,0.638765,,43,0,43,0,1,,,,,,,conf_face,,,,,,,,,,,,,,,,,,,,,,,,,,AL,1,2,2020-11-06_04h28.09.977,configural_featural,2020.2.4,MacIntel,60,2560,1440,,0,-0.10446784,0,Stimuli/edmd.png,Stimuli/eimd.png,,,,f,0,0.4381,,44,0,44,0,1,,,,,,,conf_face,,,,,,,,,,,,,,,,,,,,,,,,,,AL,1,2,2020-11-06_04h28.09.977,configural_featural,2020.2.4,MacIntel,60,2560,1440,,0,-0.10446784,1,Stimuli/eimd.png,Stimuli/eimd.png,,,,f,1,0.599245,,45,0,45,0,1,,,,,,,conf_face,,,,,,,,,,,,,,,,,,,,,,,,,,AL,1,2,2020-11-06_04h28.09.977,configural_featural,2020.2.4,MacIntel,60,2560,1440,,0,-0.10446784,0,Stimuli/eimd.png,Stimuli/eumu.png,,,,j,1,0.55256,,46,0,46,0,1,,,,,,,conf_face,,,,,,,,,,,,,,,,,,,,,,,,,,AL,1,2,2020-11-06_04h28.09.977,configural_featural,2020.2.4,MacIntel,60,2560,1440,,0,0.10446784,1,Stimuli/edmd.png,Stimuli/edmd.png,,,,f,1,2.173185,,47,0,47,0,1,,,,,,,conf_face,,,,,,,,,,,,,,,,,,,,,,,,,,AL,1,2,2020-11-06_04h28.09.977,configural_featural,2020.2.4,MacIntel,60,2560,1440,,,,,,,,,,,,,,,,,,,,0,0,0,0,1,conf_face,Designs/instructions_face_1234.png,,,,,,,,,,,,,,,,,,,,,,,,,AL,1,2,2020-11-06_04h28.09.977,configural_featural,2020.2.4,MacIntel,60,2560,1440,,0,0.10446784,0,Stimuli/H-8sim3.png,Stimuli/H-8sim1.png,,,,f,0,5.926275,,0,0,0,0,1,,,,,,,conf_haus,,,,,,,,,,,,,,,,,,,,,,,,,,AL,1,2,2020-11-06_04h28.09.977,configural_featural,2020.2.4,MacIntel,60,2560,1440,,0,-0.10446784,1,Stimuli/H-8sim2.png,Stimuli/H-8sim2.png,,,,f,1,1.71229,,1,0,1,0,1,,,,,,,conf_haus,,,,,,,,,,,,,,,,,,,,,,,,,,AL,1,2,2020-11-06_04h28.09.977,configural_featural,2020.2.4,MacIntel,60,2560,1440,,0,0.10446784,0,Stimuli/H-8sim0.png,Stimuli/H-8sim1.png,,,,f,0,1.40017,,2,0,2,0,1,,,,,,,conf_haus,,,,,,,,,,,,,,,,,,,,,,,,,,AL,1,2,2020-11-06_04h28.09.977,configural_featural,2020.2.4,MacIntel,60,2560,1440,,0,0.10446784,0,Stimuli/H-8sim2.png,Stimuli/H-8sim1.png,,,,f,0,0.69954,,3,0,3,0,1,,,,,,,conf_haus,,,,,,,,,,,,,,,,,,,,,,,,,,AL,1,2,2020-11-06_04h28.09.977,configural_featural,2020.2.4,MacIntel,60,2560,1440,,0,0.10446784,1,Stimuli/H-8sim0.png,Stimuli/H-8sim0.png,,,,f,1,1.16436,,4,0,4,0,1,,,,,,,conf_haus,,,,,,,,,,,,,,,,,,,,,,,,,,AL,1,2,2020-11-06_04h28.09.977,configural_featural,2020.2.4,MacIntel,60,2560,1440,,0,-0.10446784,1,Stimuli/H-8sim0.png,Stimuli/H-8sim0.png,,,,f,1,1.96808,,5,0,5,0,1,,,,,,,conf_haus,,,,,,,,,,,,,,,,,,,,,,,,,,AL,1,2,2020-11-06_04h28.09.977,configural_featural,2020.2.4,MacIntel,60,2560,1440,,0,-0.10446784,1,Stimuli/H-8sim1.png,Stimuli/H-8sim1.png,,,,f,1,0.913475,,6,0,6,0,1,,,,,,,conf_haus,,,,,,,,,,,,,,,,,,,,,,,,,,AL,1,2,2020-11-06_04h28.09.977,configural_featural,2020.2.4,MacIntel,60,2560,1440,,0,-0.10446784,0,Stimuli/H-8sim1.png,Stimuli/H-8sim3.png,,,,f,0,1.07779,,7,0,7,0,1,,,,,,,conf_haus,,,,,,,,,,,,,,,,,,,,,,,,,,AL,1,2,2020-11-06_04h28.09.977,configural_featural,2020.2.4,MacIntel,60,2560,1440,,0,0.10446784,1,Stimuli/H-8sim3.png,Stimuli/H-8sim3.png,,,,f,1,0.850845,,8,0,8,0,1,,,,,,,conf_haus,,,,,,,,,,,,,,,,,,,,,,,,,,AL,1,2,2020-11-06_04h28.09.977,configural_featural,2020.2.4,MacIntel,60,2560,1440,,1,-0.10446784,0,Stimuli/H-8sim1.png,Stimuli/H-8sim0.png,,,,j,1,1.310845,space,9,0,9,0,1,0.349775,,,,,,conf_haus,,,,,,,,,,,,,,,,,,,,,,,,,,AL,1,2,2020-11-06_04h28.09.977,configural_featural,2020.2.4,MacIntel,60,2560,1440,,0,-0.10446784,0,Stimuli/H-8sim3.png,Stimuli/H-8sim1.png,,,,j,1,1.27212,,10,0,10,0,1,,,,,,,conf_haus,,,,,,,,,,,,,,,,,,,,,,,,,,AL,1,2,2020-11-06_04h28.09.977,configural_featural,2020.2.4,MacIntel,60,2560,1440,,0,-0.10446784,1,Stimuli/H-8sim3.png,Stimuli/H-8sim3.png,,,,f,1,1.22784,,11,0,11,0,1,,,,,,,conf_haus,,,,,,,,,,,,,,,,,,,,,,,,,,AL,1,2,2020-11-06_04h28.09.977,configural_featural,2020.2.4,MacIntel,60,2560,1440,,0,-0.10446784,0,Stimuli/H-8sim3.png,Stimuli/H-8sim2.png,,,,f,0,1.69882,,12,0,12,0,1,,,,,,,conf_haus,,,,,,,,,,,,,,,,,,,,,,,,,,AL,1,2,2020-11-06_04h28.09.977,configural_featural,2020.2.4,MacIntel,60,2560,1440,,0,0.10446784,1,Stimuli/H-8sim1.png,Stimuli/H-8sim1.png,,,,f,1,1.055585,,13,0,13,0,1,,,,,,,conf_haus,,,,,,,,,,,,,,,,,,,,,,,,,,AL,1,2,2020-11-06_04h28.09.977,configural_featural,2020.2.4,MacIntel,60,2560,1440,,0,-0.10446784,0,Stimuli/H-8sim2.png,Stimuli/H-8sim3.png,,,,f,0,1.132595,,14,0,14,0,1,,,,,,,conf_haus,,,,,,,,,,,,,,,,,,,,,,,,,,AL,1,2,2020-11-06_04h28.09.977,configural_featural,2020.2.4,MacIntel,60,2560,1440,,0,0.10446784,1,Stimuli/H-8sim2.png,Stimuli/H-8sim2.png,,,,f,1,1.18782,,15,0,15,0,1,,,,,,,conf_haus,,,,,,,,,,,,,,,,,,,,,,,,,,AL,1,2,2020-11-06_04h28.09.977,configural_featural,2020.2.4,MacIntel,60,2560,1440,,0,-0.10446784,1,Stimuli/H-8sim3.png,Stimuli/H-8sim3.png,,,,f,1,1.223015,,16,0,16,0,1,,,,,,,conf_haus,,,,,,,,,,,,,,,,,,,,,,,,,,AL,1,2,2020-11-06_04h28.09.977,configural_featural,2020.2.4,MacIntel,60,2560,1440,,0,-0.10446784,0,Stimuli/H-8sim2.png,Stimuli/H-8sim0.png,,,,j,1,1.208055,,17,0,17,0,1,,,,,,,conf_haus,,,,,,,,,,,,,,,,,,,,,,,,,,AL,1,2,2020-11-06_04h28.09.977,configural_featural,2020.2.4,MacIntel,60,2560,1440,,0,-0.10446784,0,Stimuli/H-8sim3.png,Stimuli/H-8sim0.png,,,,j,1,1.337625,,18,0,18,0,1,,,,,,,conf_haus,,,,,,,,,,,,,,,,,,,,,,,,,,AL,1,2,2020-11-06_04h28.09.977,configural_featural,2020.2.4,MacIntel,60,2560,1440,,0,0.10446784,0,Stimuli/H-8sim3.png,Stimuli/H-8sim0.png,,,,j,1,1.50097,,19,0,19,0,1,,,,,,,conf_haus,,,,,,,,,,,,,,,,,,,,,,,,,,AL,1,2,2020-11-06_04h28.09.977,configural_featural,2020.2.4,MacIntel,60,2560,1440,,0,-0.10446784,1,Stimuli/H-8sim0.png,Stimuli/H-8sim0.png,,,,f,1,0.970825,,20,0,20,0,1,,,,,,,conf_haus,,,,,,,,,,,,,,,,,,,,,,,,,,AL,1,2,2020-11-06_04h28.09.977,configural_featural,2020.2.4,MacIntel,60,2560,1440,,0,-0.10446784,0,Stimuli/H-8sim0.png,Stimuli/H-8sim3.png,,,,j,1,2.4449,,21,0,21,0,1,,,,,,,conf_haus,,,,,,,,,,,,,,,,,,,,,,,,,,AL,1,2,2020-11-06_04h28.09.977,configural_featural,2020.2.4,MacIntel,60,2560,1440,,0,0.10446784,1,Stimuli/H-8sim2.png,Stimuli/H-8sim2.png,,,,j,0,1.05322,,22,0,22,0,1,,,,,,,conf_haus,,,,,,,,,,,,,,,,,,,,,,,,,,AL,1,2,2020-11-06_04h28.09.977,configural_featural,2020.2.4,MacIntel,60,2560,1440,,0,-0.10446784,1,Stimuli/H-8sim2.png,Stimuli/H-8sim2.png,,,,j,0,1.412155,,23,0,23,0,1,,,,,,,conf_haus,,,,,,,,,,,,,,,,,,,,,,,,,,AL,1,2,2020-11-06_04h28.09.977,configural_featural,2020.2.4,MacIntel,60,2560,1440,,1,-0.10446784,1,Stimuli/H-8sim1.png,Stimuli/H-8sim1.png,,,,f,1,0.86517,space,24,0,24,0,1,0.445915,,,,,,conf_haus,,,,,,,,,,,,,,,,,,,,,,,,,,AL,1,2,2020-11-06_04h28.09.977,configural_featural,2020.2.4,MacIntel,60,2560,1440,,0,0.10446784,0,Stimuli/H-8sim3.png,Stimuli/H-8sim2.png,,,,j,1,2.00179,,25,0,25,0,1,,,,,,,conf_haus,,,,,,,,,,,,,,,,,,,,,,,,,,AL,1,2,2020-11-06_04h28.09.977,configural_featural,2020.2.4,MacIntel,60,2560,1440,,0,0.10446784,1,Stimuli/H-8sim0.png,Stimuli/H-8sim0.png,,,,j,0,1.2206,,26,0,26,0,1,,,,,,,conf_haus,,,,,,,,,,,,,,,,,,,,,,,,,,AL,1,2,2020-11-06_04h28.09.977,configural_featural,2020.2.4,MacIntel,60,2560,1440,,1,-0.10446784,0,Stimuli/H-8sim1.png,Stimuli/H-8sim2.png,,,,f,0,1.053645,space,27,0,27,0,1,0.58128,,,,,,conf_haus,,,,,,,,,,,,,,,,,,,,,,,,,,AL,1,2,2020-11-06_04h28.09.977,configural_featural,2020.2.4,MacIntel,60,2560,1440,,0,0.10446784,1,Stimuli/H-8sim1.png,Stimuli/H-8sim1.png,,,,j,0,0.84548,,28,0,28,0,1,,,,,,,conf_haus,,,,,,,,,,,,,,,,,,,,,,,,,,AL,1,2,2020-11-06_04h28.09.977,configural_featural,2020.2.4,MacIntel,60,2560,1440,,0,0.10446784,0,Stimuli/H-8sim1.png,Stimuli/H-8sim0.png,,,,j,1,0.897285,,29,0,29,0,1,,,,,,,conf_haus,,,,,,,,,,,,,,,,,,,,,,,,,,AL,1,2,2020-11-06_04h28.09.977,configural_featural,2020.2.4,MacIntel,60,2560,1440,,0,0.10446784,0,Stimuli/H-8sim0.png,Stimuli/H-8sim3.png,,,,j,1,0.699935,,30,0,30,0,1,,,,,,,conf_haus,,,,,,,,,,,,,,,,,,,,,,,,,,AL,1,2,2020-11-06_04h28.09.977,configural_featural,2020.2.4,MacIntel,60,2560,1440,,0,0.10446784,1,Stimuli/H-8sim3.png,Stimuli/H-8sim3.png,,,,j,0,1.434165,,31,0,31,0,1,,,,,,,conf_haus,,,,,,,,,,,,,,,,,,,,,,,,,,AL,1,2,2020-11-06_04h28.09.977,configural_featural,2020.2.4,MacIntel,60,2560,1440,,0,0.10446784,1,Stimuli/H-8sim1.png,Stimuli/H-8sim1.png,,,,f,1,0.962595,,32,0,32,0,1,,,,,,,conf_haus,,,,,,,,,,,,,,,,,,,,,,,,,,AL,1,2,2020-11-06_04h28.09.977,configural_featural,2020.2.4,MacIntel,60,2560,1440,,0,0.10446784,0,Stimuli/H-8sim1.png,Stimuli/H-8sim2.png,,,,j,1,1.437225,,33,0,33,0,1,,,,,,,conf_haus,,,,,,,,,,,,,,,,,,,,,,,,,,AL,1,2,2020-11-06_04h28.09.977,configural_featural,2020.2.4,MacIntel,60,2560,1440,,0,-0.10446784,0,Stimuli/H-8sim0.png,Stimuli/H-8sim1.png,,,,j,1,0.84345,,34,0,34,0,1,,,,,,,conf_haus,,,,,,,,,,,,,,,,,,,,,,,,,,AL,1,2,2020-11-06_04h28.09.977,configural_featural,2020.2.4,MacIntel,60,2560,1440,,0,0.10446784,1,Stimuli/H-8sim2.png,Stimuli/H-8sim2.png,,,,j,0,1.78306,,35,0,35,0,1,,,,,,,conf_haus,,,,,,,,,,,,,,,,,,,,,,,,,,AL,1,2,2020-11-06_04h28.09.977,configural_featural,2020.2.4,MacIntel,60,2560,1440,,0,-0.10446784,0,Stimuli/H-8sim0.png,Stimuli/H-8sim2.png,,,,j,1,1.807965,,36,0,36,0,1,,,,,,,conf_haus,,,,,,,,,,,,,,,,,,,,,,,,,,AL,1,2,2020-11-06_04h28.09.977,configural_featural,2020.2.4,MacIntel,60,2560,1440,,0,-0.10446784,1,Stimuli/H-8sim1.png,Stimuli/H-8sim1.png,,,,j,0,1.03094,,37,0,37,0,1,,,,,,,conf_haus,,,,,,,,,,,,,,,,,,,,,,,,,,AL,1,2,2020-11-06_04h28.09.977,configural_featural,2020.2.4,MacIntel,60,2560,1440,,1,0.10446784,0,Stimuli/H-8sim2.png,Stimuli/H-8sim0.png,,,,j,1,1.632285,space,38,0,38,0,1,1.370225,,,,,,conf_haus,,,,,,,,,,,,,,,,,,,,,,,,,,AL,1,2,2020-11-06_04h28.09.977,configural_featural,2020.2.4,MacIntel,60,2560,1440,,1,-0.10446784,1,Stimuli/H-8sim3.png,Stimuli/H-8sim3.png,,,,j,0,1.040525,,39,0,39,0,1,,,,,,,conf_haus,,,,,,,,,,,,,,,,,,,,,,,,,,AL,1,2,2020-11-06_04h28.09.977,configural_featural,2020.2.4,MacIntel,60,2560,1440,,0,-0.10446784,0,Stimuli/H-8sim2.png,Stimuli/H-8sim1.png,,,,j,1,1.099315,,40,0,40,0,1,,,,,,,conf_haus,,,,,,,,,,,,,,,,,,,,,,,,,,AL,1,2,2020-11-06_04h28.09.977,configural_featural,2020.2.4,MacIntel,60,2560,1440,,0,-0.10446784,1,Stimuli/H-8sim0.png,Stimuli/H-8sim0.png,,,,f,1,1.951795,,41,0,41,0,1,,,,,,,conf_haus,,,,,,,,,,,,,,,,,,,,,,,,,,AL,1,2,2020-11-06_04h28.09.977,configural_featural,2020.2.4,MacIntel,60,2560,1440,,0,0.10446784,0,Stimuli/H-8sim1.png,Stimuli/H-8sim3.png,,,,j,1,0.864565,,42,0,42,0,1,,,,,,,conf_haus,,,,,,,,,,,,,,,,,,,,,,,,,,AL,1,2,2020-11-06_04h28.09.977,configural_featural,2020.2.4,MacIntel,60,2560,1440,,1,0.10446784,0,Stimuli/H-8sim0.png,Stimuli/H-8sim2.png,,,,f,0,1.664855,space,43,0,43,0,1,0.39843,,,,,,conf_haus,,,,,,,,,,,,,,,,,,,,,,,,,,AL,1,2,2020-11-06_04h28.09.977,configural_featural,2020.2.4,MacIntel,60,2560,1440,,0,0.10446784,0,Stimuli/H-8sim2.png,Stimuli/H-8sim3.png,,,,j,1,0.840315,,44,0,44,0,1,,,,,,,conf_haus,,,,,,,,,,,,,,,,,,,,,,,,,,AL,1,2,2020-11-06_04h28.09.977,configural_featural,2020.2.4,MacIntel,60,2560,1440,,0,0.10446784,1,Stimuli/H-8sim0.png,Stimuli/H-8sim0.png,,,,j,0,1.081925,,45,0,45,0,1,,,,,,,conf_haus,,,,,,,,,,,,,,,,,,,,,,,,,,AL,1,2,2020-11-06_04h28.09.977,configural_featural,2020.2.4,MacIntel,60,2560,1440,,0,0.10446784,1,Stimuli/H-8sim3.png,Stimuli/H-8sim3.png,,,,j,0,0.999455,,46,0,46,0,1,,,,,,,conf_haus,,,,,,,,,,,,,,,,,,,,,,,,,,AL,1,2,2020-11-06_04h28.09.977,configural_featural,2020.2.4,MacIntel,60,2560,1440,,0,-0.10446784,1,Stimuli/H-8sim2.png,Stimuli/H-8sim2.png,,,,j,0,0.66568,,47,0,47,0,1,,,,,,,conf_haus,,,,,,,,,,,,,,,,,,,,,,,,,,AL,1,2,2020-11-06_04h28.09.977,configural_featural,2020.2.4,MacIntel,60,2560,1440,,,,,,,,,,,,,,,,,,,,0,1,1,1,1,conf_haus,Designs/instructions_haus_1234.png,,,,,,,,,,,,,,,,,,,,,,,,,AL,1,2,2020-11-06_04h28.09.977,configural_featural,2020.2.4,MacIntel,60,2560,1440,,0,0.10446784,0,Stimuli/f15.png,Stimuli/f131.png,,,,j,1,1.00214,,0,0,0,0,1,,,,,,,feat_face,,,,,,,,,,,,,,,,,,,,,,,,,,AL,1,2,2020-11-06_04h28.09.977,configural_featural,2020.2.4,MacIntel,60,2560,1440,,0,0.10446784,0,Stimuli/f24.png,Stimuli/f142.png,,,,j,1,0.835585,,1,0,1,0,1,,,,,,,feat_face,,,,,,,,,,,,,,,,,,,,,,,,,,AL,1,2,2020-11-06_04h28.09.977,configural_featural,2020.2.4,MacIntel,60,2560,1440,,0,0.10446784,0,Stimuli/f131.png,Stimuli/f24.png,,,,f,0,0.652515,,2,0,2,0,1,,,,,,,feat_face,,,,,,,,,,,,,,,,,,,,,,,,,,AL,1,2,2020-11-06_04h28.09.977,configural_featural,2020.2.4,MacIntel,60,2560,1440,,0,-0.10446784,1,Stimuli/f131.png,Stimuli/f131.png,,,,f,1,0.632105,,3,0,3,0,1,,,,,,,feat_face,,,,,,,,,,,,,,,,,,,,,,,,,,AL,1,2,2020-11-06_04h28.09.977,configural_featural,2020.2.4,MacIntel,60,2560,1440,,1,-0.10446784,1,Stimuli/f24.png,Stimuli/f24.png,,,,f,1,0.563805,space,4,0,4,0,1,0.315895,,,,,,feat_face,,,,,,,,,,,,,,,,,,,,,,,,,,AL,1,2,2020-11-06_04h28.09.977,configural_featural,2020.2.4,MacIntel,60,2560,1440,,0,0.10446784,1,Stimuli/f24.png,Stimuli/f24.png,,,,f,1,1.43939,,5,0,5,0,1,,,,,,,feat_face,,,,,,,,,,,,,,,,,,,,,,,,,,AL,1,2,2020-11-06_04h28.09.977,configural_featural,2020.2.4,MacIntel,60,2560,1440,,0,0.10446784,1,Stimuli/f131.png,Stimuli/f131.png,,,,j,0,1.06634,,6,0,6,0,1,,,,,,,feat_face,,,,,,,,,,,,,,,,,,,,,,,,,,AL,1,2,2020-11-06_04h28.09.977,configural_featural,2020.2.4,MacIntel,60,2560,1440,,0,0.10446784,0,Stimuli/f24.png,Stimuli/f15.png,,,,j,1,0.97167,,7,0,7,0,1,,,,,,,feat_face,,,,,,,,,,,,,,,,,,,,,,,,,,AL,1,2,2020-11-06_04h28.09.977,configural_featural,2020.2.4,MacIntel,60,2560,1440,,0,-0.10446784,1,Stimuli/f142.png,Stimuli/f142.png,,,,f,1,0.798065,,8,0,8,0,1,,,,,,,feat_face,,,,,,,,,,,,,,,,,,,,,,,,,,AL,1,2,2020-11-06_04h28.09.977,configural_featural,2020.2.4,MacIntel,60,2560,1440,,0,-0.10446784,0,Stimuli/f131.png,Stimuli/f15.png,,,,j,1,1.01869,,9,0,9,0,1,,,,,,,feat_face,,,,,,,,,,,,,,,,,,,,,,,,,,AL,1,2,2020-11-06_04h28.09.977,configural_featural,2020.2.4,MacIntel,60,2560,1440,,0,-0.10446784,0,Stimuli/f24.png,Stimuli/f142.png,,,,f,0,0.96123,,10,0,10,0,1,,,,,,,feat_face,,,,,,,,,,,,,,,,,,,,,,,,,,AL,1,2,2020-11-06_04h28.09.977,configural_featural,2020.2.4,MacIntel,60,2560,1440,,0,-0.10446784,1,Stimuli/f15.png,Stimuli/f15.png,,,,f,1,0.4641,,11,0,11,0,1,,,,,,,feat_face,,,,,,,,,,,,,,,,,,,,,,,,,,AL,1,2,2020-11-06_04h28.09.977,configural_featural,2020.2.4,MacIntel,60,2560,1440,,0,-0.10446784,0,Stimuli/f15.png,Stimuli/f142.png,,,,j,1,0.51245,,12,0,12,0,1,,,,,,,feat_face,,,,,,,,,,,,,,,,,,,,,,,,,,AL,1,2,2020-11-06_04h28.09.977,configural_featural,2020.2.4,MacIntel,60,2560,1440,,0,0.10446784,0,Stimuli/f15.png,Stimuli/f24.png,,,,j,1,0.934525,,13,0,13,0,1,,,,,,,feat_face,,,,,,,,,,,,,,,,,,,,,,,,,,AL,1,2,2020-11-06_04h28.09.977,configural_featural,2020.2.4,MacIntel,60,2560,1440,,0,0.10446784,1,Stimuli/f15.png,Stimuli/f15.png,,,,j,0,0.553675,,14,0,14,0,1,,,,,,,feat_face,,,,,,,,,,,,,,,,,,,,,,,,,,AL,1,2,2020-11-06_04h28.09.977,configural_featural,2020.2.4,MacIntel,60,2560,1440,,0,0.10446784,0,Stimuli/f142.png,Stimuli/f15.png,,,,j,1,0.676225,,15,0,15,0,1,,,,,,,feat_face,,,,,,,,,,,,,,,,,,,,,,,,,,AL,1,2,2020-11-06_04h28.09.977,configural_featural,2020.2.4,MacIntel,60,2560,1440,,0,-0.10446784,1,Stimuli/f24.png,Stimuli/f24.png,,,,f,1,0.59852,,16,0,16,0,1,,,,,,,feat_face,,,,,,,,,,,,,,,,,,,,,,,,,,AL,1,2,2020-11-06_04h28.09.977,configural_featural,2020.2.4,MacIntel,60,2560,1440,,1,-0.10446784,1,Stimuli/f131.png,Stimuli/f131.png,,,,f,1,0.76564,space,17,0,17,0,1,0.437945,,,,,,feat_face,,,,,,,,,,,,,,,,,,,,,,,,,,AL,1,2,2020-11-06_04h28.09.977,configural_featural,2020.2.4,MacIntel,60,2560,1440,,0,-0.10446784,0,Stimuli/f15.png,Stimuli/f131.png,,,,j,1,0.632005,,18,0,18,0,1,,,,,,,feat_face,,,,,,,,,,,,,,,,,,,,,,,,,,AL,1,2,2020-11-06_04h28.09.977,configural_featural,2020.2.4,MacIntel,60,2560,1440,,0,-0.10446784,0,Stimuli/f142.png,Stimuli/f15.png,,,,j,1,1.35329,,19,0,19,0,1,,,,,,,feat_face,,,,,,,,,,,,,,,,,,,,,,,,,,AL,1,2,2020-11-06_04h28.09.977,configural_featural,2020.2.4,MacIntel,60,2560,1440,,0,-0.10446784,0,Stimuli/f142.png,Stimuli/f24.png,,,,j,1,0.75084,,20,0,20,0,1,,,,,,,feat_face,,,,,,,,,,,,,,,,,,,,,,,,,,AL,1,2,2020-11-06_04h28.09.977,configural_featural,2020.2.4,MacIntel,60,2560,1440,,0,0.10446784,1,Stimuli/f142.png,Stimuli/f142.png,,,,f,1,1.09896,,21,0,21,0,1,,,,,,,feat_face,,,,,,,,,,,,,,,,,,,,,,,,,,AL,1,2,2020-11-06_04h28.09.977,configural_featural,2020.2.4,MacIntel,60,2560,1440,,0,0.10446784,1,Stimuli/f131.png,Stimuli/f131.png,,,,f,1,0.664025,,22,0,22,0,1,,,,,,,feat_face,,,,,,,,,,,,,,,,,,,,,,,,,,AL,1,2,2020-11-06_04h28.09.977,configural_featural,2020.2.4,MacIntel,60,2560,1440,,0,-0.10446784,1,Stimuli/f142.png,Stimuli/f142.png,,,,f,1,0.65487,,23,0,23,0,1,,,,,,,feat_face,,,,,,,,,,,,,,,,,,,,,,,,,,AL,1,2,2020-11-06_04h28.09.977,configural_featural,2020.2.4,MacIntel,60,2560,1440,,0,0.10446784,1,Stimuli/f15.png,Stimuli/f15.png,,,,j,0,0.47182,,24,0,24,0,1,,,,,,,feat_face,,,,,,,,,,,,,,,,,,,,,,,,,,AL,1,2,2020-11-06_04h28.09.977,configural_featural,2020.2.4,MacIntel,60,2560,1440,,0,0.10446784,1,Stimuli/f142.png,Stimuli/f142.png,,,,f,1,2.006925,,25,0,25,0,1,,,,,,,feat_face,,,,,,,,,,,,,,,,,,,,,,,,,,AL,1,2,2020-11-06_04h28.09.977,configural_featural,2020.2.4,MacIntel,60,2560,1440,,0,0.10446784,0,Stimuli/f24.png,Stimuli/f131.png,,,,j,1,0.83317,,26,0,26,0,1,,,,,,,feat_face,,,,,,,,,,,,,,,,,,,,,,,,,,AL,1,2,2020-11-06_04h28.09.977,configural_featural,2020.2.4,MacIntel,60,2560,1440,,0,-0.10446784,0,Stimuli/f142.png,Stimuli/f131.png,,,,f,0,0.736085,,27,0,27,0,1,,,,,,,feat_face,,,,,,,,,,,,,,,,,,,,,,,,,,AL,1,2,2020-11-06_04h28.09.977,configural_featural,2020.2.4,MacIntel,60,2560,1440,,0,-0.10446784,0,Stimuli/f24.png,Stimuli/f131.png,,,,f,0,0.805675,,28,0,28,0,1,,,,,,,feat_face,,,,,,,,,,,,,,,,,,,,,,,,,,AL,1,2,2020-11-06_04h28.09.977,configural_featural,2020.2.4,MacIntel,60,2560,1440,,0,-0.10446784,1,Stimuli/f15.png,Stimuli/f15.png,,,,f,1,0.740295,,29,0,29,0,1,,,,,,,feat_face,,,,,,,,,,,,,,,,,,,,,,,,,,AL,1,2,2020-11-06_04h28.09.977,configural_featural,2020.2.4,MacIntel,60,2560,1440,,0,-0.10446784,1,Stimuli/f131.png,Stimuli/f131.png,,,,f,1,2.648255,,30,0,30,0,1,,,,,,,feat_face,,,,,,,,,,,,,,,,,,,,,,,,,,AL,1,2,2020-11-06_04h28.09.977,configural_featural,2020.2.4,MacIntel,60,2560,1440,,0,-0.10446784,1,Stimuli/f142.png,Stimuli/f142.png,,,,f,1,0.767515,,31,0,31,0,1,,,,,,,feat_face,,,,,,,,,,,,,,,,,,,,,,,,,,AL,1,2,2020-11-06_04h28.09.977,configural_featural,2020.2.4,MacIntel,60,2560,1440,,0,0.10446784,0,Stimuli/f15.png,Stimuli/f142.png,,,,j,1,1.500535,,32,0,32,0,1,,,,,,,feat_face,,,,,,,,,,,,,,,,,,,,,,,,,,AL,1,2,2020-11-06_04h28.09.977,configural_featural,2020.2.4,MacIntel,60,2560,1440,,0,0.10446784,0,Stimuli/f131.png,Stimuli/f142.png,,,,j,1,0.763155,,33,0,33,0,1,,,,,,,feat_face,,,,,,,,,,,,,,,,,,,,,,,,,,AL,1,2,2020-11-06_04h28.09.977,configural_featural,2020.2.4,MacIntel,60,2560,1440,,1,-0.10446784,0,Stimuli/f131.png,Stimuli/f142.png,,,,f,0,0.619875,space,34,0,34,0,1,0.41999,,,,,,feat_face,,,,,,,,,,,,,,,,,,,,,,,,,,AL,1,2,2020-11-06_04h28.09.977,configural_featural,2020.2.4,MacIntel,60,2560,1440,,1,-0.10446784,1,Stimuli/f24.png,Stimuli/f24.png,,,,f,1,0.767135,,35,0,35,0,1,,,,,,,feat_face,,,,,,,,,,,,,,,,,,,,,,,,,,AL,1,2,2020-11-06_04h28.09.977,configural_featural,2020.2.4,MacIntel,60,2560,1440,,0,-0.10446784,0,Stimuli/f15.png,Stimuli/f24.png,,,,j,1,0.61488,,36,0,36,0,1,,,,,,,feat_face,,,,,,,,,,,,,,,,,,,,,,,,,,AL,1,2,2020-11-06_04h28.09.977,configural_featural,2020.2.4,MacIntel,60,2560,1440,,0,0.10446784,1,Stimuli/f24.png,Stimuli/f24.png,,,,j,0,1.00258,,37,0,37,0,1,,,,,,,feat_face,,,,,,,,,,,,,,,,,,,,,,,,,,AL,1,2,2020-11-06_04h28.09.977,configural_featural,2020.2.4,MacIntel,60,2560,1440,,1,0.10446784,0,Stimuli/f142.png,Stimuli/f131.png,,,,f,0,1.2209,space,38,0,38,0,1,0.53293,,,,,,feat_face,,,,,,,,,,,,,,,,,,,,,,,,,,AL,1,2,2020-11-06_04h28.09.977,configural_featural,2020.2.4,MacIntel,60,2560,1440,,0,-0.10446784,1,Stimuli/f15.png,Stimuli/f15.png,,,,f,1,0.606905,,39,0,39,0,1,,,,,,,feat_face,,,,,,,,,,,,,,,,,,,,,,,,,,AL,1,2,2020-11-06_04h28.09.977,configural_featural,2020.2.4,MacIntel,60,2560,1440,,0,-0.10446784,0,Stimuli/f131.png,Stimuli/f24.png,,,,f,0,0.831245,,40,0,40,0,1,,,,,,,feat_face,,,,,,,,,,,,,,,,,,,,,,,,,,AL,1,2,2020-11-06_04h28.09.977,configural_featural,2020.2.4,MacIntel,60,2560,1440,,0,0.10446784,1,Stimuli/f142.png,Stimuli/f142.png,,,,j,0,0.504045,,41,0,41,0,1,,,,,,,feat_face,,,,,,,,,,,,,,,,,,,,,,,,,,AL,1,2,2020-11-06_04h28.09.977,configural_featural,2020.2.4,MacIntel,60,2560,1440,,0,-0.10446784,0,Stimuli/f24.png,Stimuli/f15.png,,,,j,1,0.58388,,42,0,42,0,1,,,,,,,feat_face,,,,,,,,,,,,,,,,,,,,,,,,,,AL,1,2,2020-11-06_04h28.09.977,configural_featural,2020.2.4,MacIntel,60,2560,1440,,0,0.10446784,0,Stimuli/f131.png,Stimuli/f15.png,,,,j,1,0.55427,,43,0,43,0,1,,,,,,,feat_face,,,,,,,,,,,,,,,,,,,,,,,,,,AL,1,2,2020-11-06_04h28.09.977,configural_featural,2020.2.4,MacIntel,60,2560,1440,,0,0.10446784,0,Stimuli/f142.png,Stimuli/f24.png,,,,j,1,0.532,,44,0,44,0,1,,,,,,,feat_face,,,,,,,,,,,,,,,,,,,,,,,,,,AL,1,2,2020-11-06_04h28.09.977,configural_featural,2020.2.4,MacIntel,60,2560,1440,,1,0.10446784,1,Stimuli/f24.png,Stimuli/f24.png,,,,f,1,0.44228,,45,0,45,0,1,,,,,,,feat_face,,,,,,,,,,,,,,,,,,,,,,,,,,AL,1,2,2020-11-06_04h28.09.977,configural_featural,2020.2.4,MacIntel,60,2560,1440,,0,0.10446784,1,Stimuli/f15.png,Stimuli/f15.png,,,,j,0,1.39937,space,46,0,46,0,1,0.171875,,,,,,feat_face,,,,,,,,,,,,,,,,,,,,,,,,,,AL,1,2,2020-11-06_04h28.09.977,configural_featural,2020.2.4,MacIntel,60,2560,1440,,0,0.10446784,1,Stimuli/f131.png,Stimuli/f131.png,,,,f,1,2.148565,,47,0,47,0,1,,,,,,,feat_face,,,,,,,,,,,,,,,,,,,,,,,,,,AL,1,2,2020-11-06_04h28.09.977,configural_featural,2020.2.4,MacIntel,60,2560,1440,,,,,,,,,,,,,,,,,,,,0,2,2,2,1,feat_face,Designs/instructions_face_1234.png,,,,,,,,,,,,,,,,,,,,,,,,,AL,1,2,2020-11-06_04h28.09.977,configural_featural,2020.2.4,MacIntel,60,2560,1440,,0,-0.10446784,1,Stimuli/H8sim0.png,Stimuli/H8sim0.png,,,,j,0,0.567895,,0,0,0,0,1,,,,,,,feat_haus,,,,,,,,,,,,,,,,,,,,,,,,,,AL,1,2,2020-11-06_04h28.09.977,configural_featural,2020.2.4,MacIntel,60,2560,1440,,0,-0.10446784,0,Stimuli/H8sim0.png,Stimuli/H5sim0.png,,,,j,1,0.53935,,1,0,1,0,1,,,,,,,feat_haus,,,,,,,,,,,,,,,,,,,,,,,,,,AL,1,2,2020-11-06_04h28.09.977,configural_featural,2020.2.4,MacIntel,60,2560,1440,,0,0.10446784,0,Stimuli/H8sim0.png,Stimuli/H7sim0.png,,,,j,1,0.66461,,2,0,2,0,1,,,,,,,feat_haus,,,,,,,,,,,,,,,,,,,,,,,,,,AL,1,2,2020-11-06_04h28.09.977,configural_featural,2020.2.4,MacIntel,60,2560,1440,,0,0.10446784,1,Stimuli/H6sim0.png,Stimuli/H6sim0.png,,,,f,1,1.098435,,3,0,3,0,1,,,,,,,feat_haus,,,,,,,,,,,,,,,,,,,,,,,,,,AL,1,2,2020-11-06_04h28.09.977,configural_featural,2020.2.4,MacIntel,60,2560,1440,,0,0.10446784,1,Stimuli/H7sim0.png,Stimuli/H7sim0.png,,,,f,1,1.38673,,4,0,4,0,1,,,,,,,feat_haus,,,,,,,,,,,,,,,,,,,,,,,,,,AL,1,2,2020-11-06_04h28.09.977,configural_featural,2020.2.4,MacIntel,60,2560,1440,,0,0.10446784,0,Stimuli/H7sim0.png,Stimuli/H5sim0.png,,,,j,1,0.61505,,5,0,5,0,1,,,,,,,feat_haus,,,,,,,,,,,,,,,,,,,,,,,,,,AL,1,2,2020-11-06_04h28.09.977,configural_featural,2020.2.4,MacIntel,60,2560,1440,,0,0.10446784,1,Stimuli/H8sim0.png,Stimuli/H8sim0.png,,,,f,1,0.647625,,6,0,6,0,1,,,,,,,feat_haus,,,,,,,,,,,,,,,,,,,,,,,,,,AL,1,2,2020-11-06_04h28.09.977,configural_featural,2020.2.4,MacIntel,60,2560,1440,,0,-0.10446784,0,Stimuli/H8sim0.png,Stimuli/H6sim0.png,,,,j,1,0.50508,,7,0,7,0,1,,,,,,,feat_haus,,,,,,,,,,,,,,,,,,,,,,,,,,AL,1,2,2020-11-06_04h28.09.977,configural_featural,2020.2.4,MacIntel,60,2560,1440,,1,-0.10446784,1,Stimuli/H6sim0.png,Stimuli/H6sim0.png,,,,j,0,0.90007,space,8,0,8,0,1,0.543115,,,,,,feat_haus,,,,,,,,,,,,,,,,,,,,,,,,,,AL,1,2,2020-11-06_04h28.09.977,configural_featural,2020.2.4,MacIntel,60,2560,1440,,0,0.10446784,0,Stimuli/H8sim0.png,Stimuli/H6sim0.png,,,,f,0,3.60047,,9,0,9,0,1,,,,,,,feat_haus,,,,,,,,,,,,,,,,,,,,,,,,,,AL,1,2,2020-11-06_04h28.09.977,configural_featural,2020.2.4,MacIntel,60,2560,1440,,0,0.10446784,0,Stimuli/H6sim0.png,Stimuli/H8sim0.png,,,,j,1,0.717665,,10,0,10,0,1,,,,,,,feat_haus,,,,,,,,,,,,,,,,,,,,,,,,,,AL,1,2,2020-11-06_04h28.09.977,configural_featural,2020.2.4,MacIntel,60,2560,1440,,0,0.10446784,1,Stimuli/H5sim0.png,Stimuli/H5sim0.png,,,,f,1,0.803205,,11,0,11,0,1,,,,,,,feat_haus,,,,,,,,,,,,,,,,,,,,,,,,,,AL,1,2,2020-11-06_04h28.09.977,configural_featural,2020.2.4,MacIntel,60,2560,1440,,0,0.10446784,0,Stimuli/H6sim0.png,Stimuli/H7sim0.png,,,,j,1,0.81853,,12,0,12,0,1,,,,,,,feat_haus,,,,,,,,,,,,,,,,,,,,,,,,,,AL,1,2,2020-11-06_04h28.09.977,configural_featural,2020.2.4,MacIntel,60,2560,1440,,0,-0.10446784,1,Stimuli/H5sim0.png,Stimuli/H5sim0.png,,,,f,1,0.732955,,13,0,13,0,1,,,,,,,feat_haus,,,,,,,,,,,,,,,,,,,,,,,,,,AL,1,2,2020-11-06_04h28.09.977,configural_featural,2020.2.4,MacIntel,60,2560,1440,,0,-0.10446784,0,Stimuli/H6sim0.png,Stimuli/H7sim0.png,,,,j,1,0.51309,,14,0,14,0,1,,,,,,,feat_haus,,,,,,,,,,,,,,,,,,,,,,,,,,AL,1,2,2020-11-06_04h28.09.977,configural_featural,2020.2.4,MacIntel,60,2560,1440,,0,-0.10446784,1,Stimuli/H7sim0.png,Stimuli/H7sim0.png,,,,f,1,1.2307,,15,0,15,0,1,,,,,,,feat_haus,,,,,,,,,,,,,,,,,,,,,,,,,,AL,1,2,2020-11-06_04h28.09.977,configural_featural,2020.2.4,MacIntel,60,2560,1440,,0,-0.10446784,1,Stimuli/H6sim0.png,Stimuli/H6sim0.png,,,,f,1,0.998265,,16,0,16,0,1,,,,,,,feat_haus,,,,,,,,,,,,,,,,,,,,,,,,,,AL,1,2,2020-11-06_04h28.09.977,configural_featural,2020.2.4,MacIntel,60,2560,1440,,0,0.10446784,0,Stimuli/H5sim0.png,Stimuli/H6sim0.png,,,,j,1,0.52903,,17,0,17,0,1,,,,,,,feat_haus,,,,,,,,,,,,,,,,,,,,,,,,,,AL,1,2,2020-11-06_04h28.09.977,configural_featural,2020.2.4,MacIntel,60,2560,1440,,0,0.10446784,1,Stimuli/H6sim0.png,Stimuli/H6sim0.png,,,,f,1,1.673225,,18,0,18,0,1,,,,,,,feat_haus,,,,,,,,,,,,,,,,,,,,,,,,,,AL,1,2,2020-11-06_04h28.09.977,configural_featural,2020.2.4,MacIntel,60,2560,1440,,0,0.10446784,1,Stimuli/H7sim0.png,Stimuli/H7sim0.png,,,,f,1,1.867695,,19,0,19,0,1,,,,,,,feat_haus,,,,,,,,,,,,,,,,,,,,,,,,,,AL,1,2,2020-11-06_04h28.09.977,configural_featural,2020.2.4,MacIntel,60,2560,1440,,0,-0.10446784,0,Stimuli/H6sim0.png,Stimuli/H5sim0.png,,,,j,1,1.40624,,20,0,20,0,1,,,,,,,feat_haus,,,,,,,,,,,,,,,,,,,,,,,,,,AL,1,2,2020-11-06_04h28.09.977,configural_featural,2020.2.4,MacIntel,60,2560,1440,,1,0.10446784,0,Stimuli/H6sim0.png,Stimuli/H5sim0.png,,,,f,0,1.065935,,21,0,21,0,1,,,,,,,feat_haus,,,,,,,,,,,,,,,,,,,,,,,,,,AL,1,2,2020-11-06_04h28.09.977,configural_featural,2020.2.4,MacIntel,60,2560,1440,,0,0.10446784,0,Stimuli/H7sim0.png,Stimuli/H6sim0.png,,space,,j,1,0.875875,,22,0,22,0,1,,,,,,,feat_haus,,0.198565,,,,,,,,,,,,,,,,,,,,,,,,AL,1,2,2020-11-06_04h28.09.977,configural_featural,2020.2.4,MacIntel,60,2560,1440,,0,0.10446784,1,Stimuli/H8sim0.png,Stimuli/H8sim0.png,,,,j,0,1.03006,,23,0,23,0,1,,,,,,,feat_haus,,,,,,,,,,,,,,,,,,,,,,,,,,AL,1,2,2020-11-06_04h28.09.977,configural_featural,2020.2.4,MacIntel,60,2560,1440,,0,-0.10446784,1,Stimuli/H7sim0.png,Stimuli/H7sim0.png,,,,f,1,0.849585,,24,0,24,0,1,,,,,,,feat_haus,,,,,,,,,,,,,,,,,,,,,,,,,,AL,1,2,2020-11-06_04h28.09.977,configural_featural,2020.2.4,MacIntel,60,2560,1440,,0,0.10446784,0,Stimuli/H8sim0.png,Stimuli/H5sim0.png,,,,j,1,0.53748,,25,0,25,0,1,,,,,,,feat_haus,,,,,,,,,,,,,,,,,,,,,,,,,,AL,1,2,2020-11-06_04h28.09.977,configural_featural,2020.2.4,MacIntel,60,2560,1440,,0,-0.10446784,0,Stimuli/H5sim0.png,Stimuli/H8sim0.png,,,,j,1,2.285685,,26,0,26,0,1,,,,,,,feat_haus,,,,,,,,,,,,,,,,,,,,,,,,,,AL,1,2,2020-11-06_04h28.09.977,configural_featural,2020.2.4,MacIntel,60,2560,1440,,0,0.10446784,0,Stimuli/H7sim0.png,Stimuli/H8sim0.png,,,,j,1,1.84505,,27,0,27,0,1,,,,,,,feat_haus,,,,,,,,,,,,,,,,,,,,,,,,,,AL,1,2,2020-11-06_04h28.09.977,configural_featural,2020.2.4,MacIntel,60,2560,1440,,1,-0.10446784,1,Stimuli/H8sim0.png,Stimuli/H8sim0.png,,,,f,1,1.044135,space,28,0,28,0,1,0.45165,,,,,,feat_haus,,,,,,,,,,,,,,,,,,,,,,,,,,AL,1,2,2020-11-06_04h28.09.977,configural_featural,2020.2.4,MacIntel,60,2560,1440,,0,-0.10446784,1,Stimuli/H5sim0.png,Stimuli/H5sim0.png,,,,f,1,0.93124,,29,0,29,0,1,,,,,,,feat_haus,,,,,,,,,,,,,,,,,,,,,,,,,,AL,1,2,2020-11-06_04h28.09.977,configural_featural,2020.2.4,MacIntel,60,2560,1440,,0,0.10446784,1,Stimuli/H5sim0.png,Stimuli/H5sim0.png,,,,f,1,0.432705,,30,0,30,0,1,,,,,,,feat_haus,,,,,,,,,,,,,,,,,,,,,,,,,,AL,1,2,2020-11-06_04h28.09.977,configural_featural,2020.2.4,MacIntel,60,2560,1440,,0,-0.10446784,0,Stimuli/H5sim0.png,Stimuli/H7sim0.png,,,,j,1,0.432535,,31,0,31,0,1,,,,,,,feat_haus,,,,,,,,,,,,,,,,,,,,,,,,,,AL,1,2,2020-11-06_04h28.09.977,configural_featural,2020.2.4,MacIntel,60,2560,1440,,0,-0.10446784,1,Stimuli/H6sim0.png,Stimuli/H6sim0.png,,,,j,0,3.30269,,32,0,32,0,1,,,,,,,feat_haus,,,,,,,,,,,,,,,,,,,,,,,,,,AL,1,2,2020-11-06_04h28.09.977,configural_featural,2020.2.4,MacIntel,60,2560,1440,,0,-0.10446784,0,Stimuli/H6sim0.png,Stimuli/H8sim0.png,,,,j,1,0.572295,,33,0,33,0,1,,,,,,,feat_haus,,,,,,,,,,,,,,,,,,,,,,,,,,AL,1,2,2020-11-06_04h28.09.977,configural_featural,2020.2.4,MacIntel,60,2560,1440,,0,-0.10446784,0,Stimuli/H7sim0.png,Stimuli/H6sim0.png,,,,j,1,0.729965,,34,0,34,0,1,,,,,,,feat_haus,,,,,,,,,,,,,,,,,,,,,,,,,,AL,1,2,2020-11-06_04h28.09.977,configural_featural,2020.2.4,MacIntel,60,2560,1440,,0,-0.10446784,1,Stimuli/H5sim0.png,Stimuli/H5sim0.png,,,,f,1,0.643095,,35,0,35,0,1,,,,,,,feat_haus,,,,,,,,,,,,,,,,,,,,,,,,,,AL,1,2,2020-11-06_04h28.09.977,configural_featural,2020.2.4,MacIntel,60,2560,1440,,1,-0.10446784,0,Stimuli/H5sim0.png,Stimuli/H6sim0.png,,,,j,1,0.867085,space,36,0,36,0,1,0.39959,,,,,,feat_haus,,,,,,,,,,,,,,,,,,,,,,,,,,AL,1,2,2020-11-06_04h28.09.977,configural_featural,2020.2.4,MacIntel,60,2560,1440,,0,0.10446784,1,Stimuli/H6sim0.png,Stimuli/H6sim0.png,,,,f,1,0.90703,,37,0,37,0,1,,,,,,,feat_haus,,,,,,,,,,,,,,,,,,,,,,,,,,AL,1,2,2020-11-06_04h28.09.977,configural_featural,2020.2.4,MacIntel,60,2560,1440,,0,-0.10446784,0,Stimuli/H7sim0.png,Stimuli/H8sim0.png,,,,j,1,0.867345,,38,0,38,0,1,,,,,,,feat_haus,,,,,,,,,,,,,,,,,,,,,,,,,,AL,1,2,2020-11-06_04h28.09.977,configural_featural,2020.2.4,MacIntel,60,2560,1440,,0,-0.10446784,1,Stimuli/H7sim0.png,Stimuli/H7sim0.png,,,,f,1,0.633325,,39,0,39,0,1,,,,,,,feat_haus,,,,,,,,,,,,,,,,,,,,,,,,,,AL,1,2,2020-11-06_04h28.09.977,configural_featural,2020.2.4,MacIntel,60,2560,1440,,1,0.10446784,0,Stimuli/H5sim0.png,Stimuli/H8sim0.png,,,,f,0,0.71937,space,40,0,40,0,1,0.34361,,,,,,feat_haus,,,,,,,,,,,,,,,,,,,,,,,,,,AL,1,2,2020-11-06_04h28.09.977,configural_featural,2020.2.4,MacIntel,60,2560,1440,,0,0.10446784,1,Stimuli/H7sim0.png,Stimuli/H7sim0.png,,,,f,1,0.451765,,41,0,41,0,1,,,,,,,feat_haus,,,,,,,,,,,,,,,,,,,,,,,,,,AL,1,2,2020-11-06_04h28.09.977,configural_featural,2020.2.4,MacIntel,60,2560,1440,,1,-0.10446784,1,Stimuli/H8sim0.png,Stimuli/H8sim0.png,,,,f,1,0.604465,,42,0,42,0,1,,,,,,,feat_haus,,,,,,,,,,,,,,,,,,,,,,,,,,AL,1,2,2020-11-06_04h28.09.977,configural_featural,2020.2.4,MacIntel,60,2560,1440,,0,0.10446784,1,Stimuli/H8sim0.png,Stimuli/H8sim0.png,,,,f,1,0.73244,,43,0,43,0,1,,,,,,,feat_haus,,,,,,,,,,,,,,,,,,,,,,,,,,AL,1,2,2020-11-06_04h28.09.977,configural_featural,2020.2.4,MacIntel,60,2560,1440,,0,0.10446784,1,Stimuli/H5sim0.png,Stimuli/H5sim0.png,,,,f,1,0.86509,,44,0,44,0,1,,,,,,,feat_haus,,,,,,,,,,,,,,,,,,,,,,,,,,AL,1,2,2020-11-06_04h28.09.977,configural_featural,2020.2.4,MacIntel,60,2560,1440,,0,0.10446784,0,Stimuli/H5sim0.png,Stimuli/H7sim0.png,,,,j,1,0.83189,,45,0,45,0,1,,,,,,,feat_haus,,,,,,,,,,,,,,,,,,,,,,,,,,AL,1,2,2020-11-06_04h28.09.977,configural_featural,2020.2.4,MacIntel,60,2560,1440,,0,-0.10446784,0,Stimuli/H7sim0.png,Stimuli/H5sim0.png,,,,j,1,5.13489,,46,0,46,0,1,,,,,,,feat_haus,,,,,,,,,,,,,,,,,,,,,,,,,,AL,1,2,2020-11-06_04h28.09.977,configural_featural,2020.2.4,MacIntel,60,2560,1440,,0,-0.10446784,0,Stimuli/H8sim0.png,Stimuli/H7sim0.png,,,,j,1,0.74755,,47,0,47,0,1,,,,,,,feat_haus,,,,,,,,,,,,,,,,,,,,,,,,,,AL,1,2,2020-11-06_04h28.09.977,configural_featural,2020.2.4,MacIntel,60,2560,1440,,,,,,,,,,,,,,,,,,,,0,3,3,3,1,feat_haus,Designs/instructions_haus_1234.png,,,,,,,,,,,,,,,,,,,,,,,,,AL,1,2,2020-11-06_04h28.09.977,configural_featural,2020.2.4,MacIntel,60,2560,1440,,0,-0.10446784,0,Stimuli/edmd.png,Stimuli/eomu.png,,,,f,0,1.852425,,0,0,0,0,1,,,,,,,conf_face,,,,,,,,,,,,,,,,,,,,,,,,,,AL,1,2,2020-11-06_04h28.09.977,configural_featural,2020.2.4,MacIntel,60,2560,1440,,0,-0.10446784,1,Stimuli/edmd.png,Stimuli/edmd.png,,,,f,1,0.506805,,1,0,1,0,1,,,,,,,conf_face,,,,,,,,,,,,,,,,,,,,,,,,,,AL,1,2,2020-11-06_04h28.09.977,configural_featural,2020.2.4,MacIntel,60,2560,1440,,0,0.10446784,0,Stimuli/eomu.png,Stimuli/eumu.png,,,,f,0,1.00087,,2,0,2,0,1,,,,,,,conf_face,,,,,,,,,,,,,,,,,,,,,,,,,,AL,1,2,2020-11-06_04h28.09.977,configural_featural,2020.2.4,MacIntel,60,2560,1440,,0,0.10446784,0,Stimuli/edmd.png,Stimuli/eumu.png,,,,f,0,0.563835,,3,0,3,0,1,,,,,,,conf_face,,,,,,,,,,,,,,,,,,,,,,,,,,AL,1,2,2020-11-06_04h28.09.977,configural_featural,2020.2.4,MacIntel,60,2560,1440,,0,-0.10446784,1,Stimuli/eumu.png,Stimuli/eumu.png,,,,f,1,0.5077,,4,0,4,0,1,,,,,,,conf_face,,,,,,,,,,,,,,,,,,,,,,,,,,AL,1,2,2020-11-06_04h28.09.977,configural_featural,2020.2.4,MacIntel,60,2560,1440,,0,0.10446784,1,Stimuli/edmd.png,Stimuli/edmd.png,,,,f,1,0.597715,,5,0,5,0,1,,,,,,,conf_face,,,,,,,,,,,,,,,,,,,,,,,,,,AL,1,2,2020-11-06_04h28.09.977,configural_featural,2020.2.4,MacIntel,60,2560,1440,,1,0.10446784,1,Stimuli/eimd.png,Stimuli/eimd.png,,,,f,1,0.88471,space,6,0,6,0,1,0.372945,,,,,,conf_face,,,,,,,,,,,,,,,,,,,,,,,,,,AL,1,2,2020-11-06_04h28.09.977,configural_featural,2020.2.4,MacIntel,60,2560,1440,,0,0.10446784,1,Stimuli/eumu.png,Stimuli/eumu.png,,,,f,1,2.202105,space,7,0,7,0,1,1.642435,,,,,,conf_face,,,,,,,,,,,,,,,,,,,,,,,,,,AL,1,2,2020-11-06_04h28.09.977,configural_featural,2020.2.4,MacIntel,60,2560,1440,,0,-0.10446784,0,Stimuli/eimd.png,Stimuli/edmd.png,,,,f,0,0.66698,,8,0,8,0,1,,,,,,,conf_face,,,,,,,,,,,,,,,,,,,,,,,,,,AL,1,2,2020-11-06_04h28.09.977,configural_featural,2020.2.4,MacIntel,60,2560,1440,,0,-0.10446784,0,Stimuli/edmd.png,Stimuli/eimd.png,,,,f,0,0.785915,,9,0,9,0,1,,,,,,,conf_face,,,,,,,,,,,,,,,,,,,,,,,,,,AL,1,2,2020-11-06_04h28.09.977,configural_featural,2020.2.4,MacIntel,60,2560,1440,,0,0.10446784,0,Stimuli/eimd.png,Stimuli/eumu.png,,,,f,0,1.14891,,10,0,10,0,1,,,,,,,conf_face,,,,,,,,,,,,,,,,,,,,,,,,,,AL,1,2,2020-11-06_04h28.09.977,configural_featural,2020.2.4,MacIntel,60,2560,1440,,1,0.10446784,1,Stimuli/eomu.png,Stimuli/eomu.png,,,,f,1,1.000645,space,11,0,11,0,1,0.632655,,,,,,conf_face,,,,,,,,,,,,,,,,,,,,,,,,,,AL,1,2,2020-11-06_04h28.09.977,configural_featural,2020.2.4,MacIntel,60,2560,1440,,0,-0.10446784,1,Stimuli/eimd.png,Stimuli/eimd.png,,,,j,0,0.547695,,12,0,12,0,1,,,,,,,conf_face,,,,,,,,,,,,,,,,,,,,,,,,,,AL,1,2,2020-11-06_04h28.09.977,configural_featural,2020.2.4,MacIntel,60,2560,1440,,0,0.10446784,1,Stimuli/eomu.png,Stimuli/eomu.png,,,,f,1,0.719475,,13,0,13,0,1,,,,,,,conf_face,,,,,,,,,,,,,,,,,,,,,,,,,,AL,1,2,2020-11-06_04h28.09.977,configural_featural,2020.2.4,MacIntel,60,2560,1440,,0,0.10446784,0,Stimuli/eumu.png,Stimuli/eomu.png,,,,f,0,0.684955,,14,0,14,0,1,,,,,,,conf_face,,,,,,,,,,,,,,,,,,,,,,,,,,AL,1,2,2020-11-06_04h28.09.977,configural_featural,2020.2.4,MacIntel,60,2560,1440,,0,-0.10446784,1,Stimuli/eomu.png,Stimuli/eomu.png,,,,f,1,0.6849,,15,0,15,0,1,,,,,,,conf_face,,,,,,,,,,,,,,,,,,,,,,,,,,AL,1,2,2020-11-06_04h28.09.977,configural_featural,2020.2.4,MacIntel,60,2560,1440,,0,-0.10446784,0,Stimuli/eimd.png,Stimuli/eomu.png,,,,f,0,1.23514,,16,0,16,0,1,,,,,,,conf_face,,,,,,,,,,,,,,,,,,,,,,,,,,AL,1,2,2020-11-06_04h28.09.977,configural_featural,2020.2.4,MacIntel,60,2560,1440,,1,0.10446784,0,Stimuli/eumu.png,Stimuli/eimd.png,,,,f,0,1.163425,space,17,0,17,0,1,0.443255,,,,,,conf_face,,,,,,,,,,,,,,,,,,,,,,,,,,AL,1,2,2020-11-06_04h28.09.977,configural_featural,2020.2.4,MacIntel,60,2560,1440,,0,-0.10446784,0,Stimuli/eomu.png,Stimuli/eumu.png,,,,f,0,1.910175,,18,0,18,0,1,,,,,,,conf_face,,,,,,,,,,,,,,,,,,,,,,,,,,AL,1,2,2020-11-06_04h28.09.977,configural_featural,2020.2.4,MacIntel,60,2560,1440,,0,-0.10446784,0,Stimuli/eomu.png,Stimuli/eimd.png,,,,j,1,0.747325,,19,0,19,0,1,,,,,,,conf_face,,,,,,,,,,,,,,,,,,,,,,,,,,AL,1,2,2020-11-06_04h28.09.977,configural_featural,2020.2.4,MacIntel,60,2560,1440,,0,-0.10446784,1,Stimuli/edmd.png,Stimuli/edmd.png,,,,f,1,1.935055,,20,0,20,0,1,,,,,,,conf_face,,,,,,,,,,,,,,,,,,,,,,,,,,AL,1,2,2020-11-06_04h28.09.977,configural_featural,2020.2.4,MacIntel,60,2560,1440,,0,-0.10446784,1,Stimuli/eomu.png,Stimuli/eomu.png,,,,f,1,0.66442,,21,0,21,0,1,,,,,,,conf_face,,,,,,,,,,,,,,,,,,,,,,,,,,AL,1,2,2020-11-06_04h28.09.977,configural_featural,2020.2.4,MacIntel,60,2560,1440,,0,-0.10446784,0,Stimuli/eumu.png,Stimuli/eomu.png,,,,f,0,0.833775,,22,0,22,0,1,,,,,,,conf_face,,,,,,,,,,,,,,,,,,,,,,,,,,AL,1,2,2020-11-06_04h28.09.977,configural_featural,2020.2.4,MacIntel,60,2560,1440,,0,-0.10446784,1,Stimuli/eumu.png,Stimuli/eumu.png,,,,f,1,0.60871,,23,0,23,0,1,,,,,,,conf_face,,,,,,,,,,,,,,,,,,,,,,,,,,AL,1,2,2020-11-06_04h28.09.977,configural_featural,2020.2.4,MacIntel,60,2560,1440,,0,0.10446784,1,Stimuli/eumu.png,Stimuli/eumu.png,,,,j,0,0.48729,,24,0,24,0,1,,,,,,,conf_face,,,,,,,,,,,,,,,,,,,,,,,,,,AL,1,2,2020-11-06_04h28.09.977,configural_featural,2020.2.4,MacIntel,60,2560,1440,,0,0.10446784,0,Stimuli/eimd.png,Stimuli/eomu.png,,,,j,1,0.54112,,25,0,25,0,1,,,,,,,conf_face,,,,,,,,,,,,,,,,,,,,,,,,,,AL,1,2,2020-11-06_04h28.09.977,configural_featural,2020.2.4,MacIntel,60,2560,1440,,0,-0.10446784,0,Stimuli/eomu.png,Stimuli/edmd.png,,,,f,0,0.55454,,26,0,26,0,1,,,,,,,conf_face,,,,,,,,,,,,,,,,,,,,,,,,,,AL,1,2,2020-11-06_04h28.09.977,configural_featural,2020.2.4,MacIntel,60,2560,1440,,0,-0.10446784,1,Stimuli/eimd.png,Stimuli/eimd.png,,,,j,0,0.574485,,27,0,27,0,1,,,,,,,conf_face,,,,,,,,,,,,,,,,,,,,,,,,,,AL,1,2,2020-11-06_04h28.09.977,configural_featural,2020.2.4,MacIntel,60,2560,1440,,0,0.10446784,0,Stimuli/eomu.png,Stimuli/edmd.png,,,,j,1,0.531615,,28,0,28,0,1,,,,,,,conf_face,,,,,,,,,,,,,,,,,,,,,,,,,,AL,1,2,2020-11-06_04h28.09.977,configural_featural,2020.2.4,MacIntel,60,2560,1440,,0,-0.10446784,1,Stimuli/eumu.png,Stimuli/eumu.png,,,,j,0,1.20584,,29,0,29,0,1,,,,,,,conf_face,,,,,,,,,,,,,,,,,,,,,,,,,,AL,1,2,2020-11-06_04h28.09.977,configural_featural,2020.2.4,MacIntel,60,2560,1440,,0,0.10446784,1,Stimuli/eimd.png,Stimuli/eimd.png,,,,j,0,0.639215,,30,0,30,0,1,,,,,,,conf_face,,,,,,,,,,,,,,,,,,,,,,,,,,AL,1,2,2020-11-06_04h28.09.977,configural_featural,2020.2.4,MacIntel,60,2560,1440,,0,0.10446784,0,Stimuli/eomu.png,Stimuli/eimd.png,,,,j,1,1.21789,,31,0,31,0,1,,,,,,,conf_face,,,,,,,,,,,,,,,,,,,,,,,,,,AL,1,2,2020-11-06_04h28.09.977,configural_featural,2020.2.4,MacIntel,60,2560,1440,,0,0.10446784,0,Stimuli/eumu.png,Stimuli/edmd.png,,,,j,1,0.75307,,32,0,32,0,1,,,,,,,conf_face,,,,,,,,,,,,,,,,,,,,,,,,,,AL,1,2,2020-11-06_04h28.09.977,configural_featural,2020.2.4,MacIntel,60,2560,1440,,1,0.10446784,1,Stimuli/edmd.png,Stimuli/edmd.png,,,,j,0,0.866195,space,33,0,33,0,1,0.38268,,,,,,conf_face,,,,,,,,,,,,,,,,,,,,,,,,,,AL,1,2,2020-11-06_04h28.09.977,configural_featural,2020.2.4,MacIntel,60,2560,1440,,0,-0.10446784,1,Stimuli/edmd.png,Stimuli/edmd.png,,,,j,0,0.98103,,34,0,34,0,1,,,,,,,conf_face,,,,,,,,,,,,,,,,,,,,,,,,,,AL,1,2,2020-11-06_04h28.09.977,configural_featural,2020.2.4,MacIntel,60,2560,1440,,0,0.10446784,0,Stimuli/edmd.png,Stimuli/eomu.png,,,,j,1,1.08768,,35,0,35,0,1,,,,,,,conf_face,,,,,,,,,,,,,,,,,,,,,,,,,,AL,1,2,2020-11-06_04h28.09.977,configural_featural,2020.2.4,MacIntel,60,2560,1440,,0,0.10446784,1,Stimuli/eumu.png,Stimuli/eumu.png,,,,j,0,0.71129,,36,0,36,0,1,,,,,,,conf_face,,,,,,,,,,,,,,,,,,,,,,,,,,AL,1,2,2020-11-06_04h28.09.977,configural_featural,2020.2.4,MacIntel,60,2560,1440,,0,-0.10446784,0,Stimuli/eimd.png,Stimuli/eumu.png,,,,f,0,0.444475,,37,0,37,0,1,,,,,,,conf_face,,,,,,,,,,,,,,,,,,,,,,,,,,AL,1,2,2020-11-06_04h28.09.977,configural_featural,2020.2.4,MacIntel,60,2560,1440,,0,-0.10446784,0,Stimuli/eumu.png,Stimuli/eimd.png,,,,j,1,0.65094,,38,0,38,0,1,,,,,,,conf_face,,,,,,,,,,,,,,,,,,,,,,,,,,AL,1,2,2020-11-06_04h28.09.977,configural_featural,2020.2.4,MacIntel,60,2560,1440,,0,0.10446784,1,Stimuli/eimd.png,Stimuli/eimd.png,,,,j,0,0.676005,,39,0,39,0,1,,,,,,,conf_face,,,,,,,,,,,,,,,,,,,,,,,,,,AL,1,2,2020-11-06_04h28.09.977,configural_featural,2020.2.4,MacIntel,60,2560,1440,,1,-0.10446784,1,Stimuli/eimd.png,Stimuli/eimd.png,,,,f,1,1.44249,space,40,0,40,0,1,0.299975,,,,,,conf_face,,,,,,,,,,,,,,,,,,,,,,,,,,AL,1,2,2020-11-06_04h28.09.977,configural_featural,2020.2.4,MacIntel,60,2560,1440,,1,-0.10446784,0,Stimuli/eumu.png,Stimuli/edmd.png,,,,j,1,0.729845,,41,0,41,0,1,,,,,,,conf_face,,,,,,,,,,,,,,,,,,,,,,,,,,AL,1,2,2020-11-06_04h28.09.977,configural_featural,2020.2.4,MacIntel,60,2560,1440,,0,0.10446784,0,Stimuli/eimd.png,Stimuli/edmd.png,,space,,f,0,2.30315,,42,0,42,0,1,,,,,,,conf_face,,0.051655,,,,,,,,,,,,,,,,,,,,,,,,AL,1,2,2020-11-06_04h28.09.977,configural_featural,2020.2.4,MacIntel,60,2560,1440,,0,-0.10446784,1,Stimuli/eomu.png,Stimuli/eomu.png,,,,j,0,0.72885,,43,0,43,0,1,,,,,,,conf_face,,,,,,,,,,,,,,,,,,,,,,,,,,AL,1,2,2020-11-06_04h28.09.977,configural_featural,2020.2.4,MacIntel,60,2560,1440,,0,-0.10446784,0,Stimuli/edmd.png,Stimuli/eumu.png,,,,f,0,0.79953,,44,0,44,0,1,,,,,,,conf_face,,,,,,,,,,,,,,,,,,,,,,,,,,AL,1,2,2020-11-06_04h28.09.977,configural_featural,2020.2.4,MacIntel,60,2560,1440,,0,0.10446784,1,Stimuli/eomu.png,Stimuli/eomu.png,,,,j,0,0.796655,,45,0,45,0,1,,,,,,,conf_face,,,,,,,,,,,,,,,,,,,,,,,,,,AL,1,2,2020-11-06_04h28.09.977,configural_featural,2020.2.4,MacIntel,60,2560,1440,,0,0.10446784,0,Stimuli/edmd.png,Stimuli/eimd.png,,,,j,1,0.9095,,46,0,46,0,1,,,,,,,conf_face,,,,,,,,,,,,,,,,,,,,,,,,,,AL,1,2,2020-11-06_04h28.09.977,configural_featural,2020.2.4,MacIntel,60,2560,1440,,0,0.10446784,1,Stimuli/edmd.png,Stimuli/edmd.png,,,,j,0,0.578335,,47,0,47,0,1,,,,,,,conf_face,,,,,,,,,,,,,,,,,,,,,,,,,,AL,1,2,2020-11-06_04h28.09.977,configural_featural,2020.2.4,MacIntel,60,2560,1440,,,,,,,,,,,,,,,,,,,,1,0,4,0,1,conf_face,Designs/instructions_face_1234.png,,,,,,,,,,,,,,,,,,,,,,,,,AL,1,2,2020-11-06_04h28.09.977,configural_featural,2020.2.4,MacIntel,60,2560,1440,,0,0.10446784,0,Stimuli/H-8sim3.png,Stimuli/H-8sim2.png,,,,f,0,0.951835,,0,0,0,0,1,,,,,,,conf_haus,,,,,,,,,,,,,,,,,,,,,,,,,,AL,1,2,2020-11-06_04h28.09.977,configural_featural,2020.2.4,MacIntel,60,2560,1440,,0,-0.10446784,1,Stimuli/H-8sim1.png,Stimuli/H-8sim1.png,,,,f,1,0.6992,,1,0,1,0,1,,,,,,,conf_haus,,,,,,,,,,,,,,,,,,,,,,,,,,AL,1,2,2020-11-06_04h28.09.977,configural_featural,2020.2.4,MacIntel,60,2560,1440,,0,0.10446784,1,Stimuli/H-8sim3.png,Stimuli/H-8sim3.png,,,,j,0,0.672955,,2,0,2,0,1,,,,,,,conf_haus,,,,,,,,,,,,,,,,,,,,,,,,,,AL,1,2,2020-11-06_04h28.09.977,configural_featural,2020.2.4,MacIntel,60,2560,1440,,0,-0.10446784,0,Stimuli/H-8sim3.png,Stimuli/H-8sim1.png,,,,j,1,0.70337,,3,0,3,0,1,,,,,,,conf_haus,,,,,,,,,,,,,,,,,,,,,,,,,,AL,1,2,2020-11-06_04h28.09.977,configural_featural,2020.2.4,MacIntel,60,2560,1440,,0,-0.10446784,1,Stimuli/H-8sim3.png,Stimuli/H-8sim3.png,,,,j,0,0.645435,,4,0,4,0,1,,,,,,,conf_haus,,,,,,,,,,,,,,,,,,,,,,,,,,AL,1,2,2020-11-06_04h28.09.977,configural_featural,2020.2.4,MacIntel,60,2560,1440,,0,-0.10446784,0,Stimuli/H-8sim0.png,Stimuli/H-8sim1.png,,,,j,1,0.62173,,5,0,5,0,1,,,,,,,conf_haus,,,,,,,,,,,,,,,,,,,,,,,,,,AL,1,2,2020-11-06_04h28.09.977,configural_featural,2020.2.4,MacIntel,60,2560,1440,,0,0.10446784,0,Stimuli/H-8sim0.png,Stimuli/H-8sim1.png,,,,j,1,0.647105,,6,0,6,0,1,,,,,,,conf_haus,,,,,,,,,,,,,,,,,,,,,,,,,,AL,1,2,2020-11-06_04h28.09.977,configural_featural,2020.2.4,MacIntel,60,2560,1440,,0,-0.10446784,0,Stimuli/H-8sim0.png,Stimuli/H-8sim2.png,,,,j,1,0.599205,,7,0,7,0,1,,,,,,,conf_haus,,,,,,,,,,,,,,,,,,,,,,,,,,AL,1,2,2020-11-06_04h28.09.977,configural_featural,2020.2.4,MacIntel,60,2560,1440,,0,0.10446784,0,Stimuli/H-8sim1.png,Stimuli/H-8sim3.png,,,,j,1,0.93217,,8,0,8,0,1,,,,,,,conf_haus,,,,,,,,,,,,,,,,,,,,,,,,,,AL,1,2,2020-11-06_04h28.09.977,configural_featural,2020.2.4,MacIntel,60,2560,1440,,0,-0.10446784,1,Stimuli/H-8sim2.png,Stimuli/H-8sim2.png,,,,f,1,0.845625,,9,0,9,0,1,,,,,,,conf_haus,,,,,,,,,,,,,,,,,,,,,,,,,,AL,1,2,2020-11-06_04h28.09.977,configural_featural,2020.2.4,MacIntel,60,2560,1440,,0,0.10446784,1,Stimuli/H-8sim1.png,Stimuli/H-8sim1.png,,,,f,1,0.69917,,10,0,10,0,1,,,,,,,conf_haus,,,,,,,,,,,,,,,,,,,,,,,,,,AL,1,2,2020-11-06_04h28.09.977,configural_featural,2020.2.4,MacIntel,60,2560,1440,,0,-0.10446784,1,Stimuli/H-8sim0.png,Stimuli/H-8sim0.png,,,,f,1,0.667765,,11,0,11,0,1,,,,,,,conf_haus,,,,,,,,,,,,,,,,,,,,,,,,,,AL,1,2,2020-11-06_04h28.09.977,configural_featural,2020.2.4,MacIntel,60,2560,1440,,0,0.10446784,0,Stimuli/H-8sim2.png,Stimuli/H-8sim1.png,,,,f,0,0.52216,,12,0,12,0,1,,,,,,,conf_haus,,,,,,,,,,,,,,,,,,,,,,,,,,AL,1,2,2020-11-06_04h28.09.977,configural_featural,2020.2.4,MacIntel,60,2560,1440,,0,0.10446784,1,Stimuli/H-8sim2.png,Stimuli/H-8sim2.png,,,,f,1,0.51355,,13,0,13,0,1,,,,,,,conf_haus,,,,,,,,,,,,,,,,,,,,,,,,,,AL,1,2,2020-11-06_04h28.09.977,configural_featural,2020.2.4,MacIntel,60,2560,1440,,0,-0.10446784,1,Stimuli/H-8sim0.png,Stimuli/H-8sim0.png,,,,j,0,0.72949,,14,0,14,0,1,,,,,,,conf_haus,,,,,,,,,,,,,,,,,,,,,,,,,,AL,1,2,2020-11-06_04h28.09.977,configural_featural,2020.2.4,MacIntel,60,2560,1440,,0,0.10446784,1,Stimuli/H-8sim0.png,Stimuli/H-8sim0.png,,,,j,0,0.93374,,15,0,15,0,1,,,,,,,conf_haus,,,,,,,,,,,,,,,,,,,,,,,,,,AL,1,2,2020-11-06_04h28.09.977,configural_featural,2020.2.4,MacIntel,60,2560,1440,,0,0.10446784,0,Stimuli/H-8sim3.png,Stimuli/H-8sim0.png,,,,j,1,0.651995,,16,0,16,0,1,,,,,,,conf_haus,,,,,,,,,,,,,,,,,,,,,,,,,,AL,1,2,2020-11-06_04h28.09.977,configural_featural,2020.2.4,MacIntel,60,2560,1440,,0,0.10446784,0,Stimuli/H-8sim3.png,Stimuli/H-8sim1.png,,,,j,1,0.63376,,17,0,17,0,1,,,,,,,conf_haus,,,,,,,,,,,,,,,,,,,,,,,,,,AL,1,2,2020-11-06_04h28.09.977,configural_featural,2020.2.4,MacIntel,60,2560,1440,,0,-0.10446784,0,Stimuli/H-8sim0.png,Stimuli/H-8sim3.png,,,,j,1,0.66623,,18,0,18,0,1,,,,,,,conf_haus,,,,,,,,,,,,,,,,,,,,,,,,,,AL,1,2,2020-11-06_04h28.09.977,configural_featural,2020.2.4,MacIntel,60,2560,1440,,0,0.10446784,1,Stimuli/H-8sim3.png,Stimuli/H-8sim3.png,,,,j,0,0.50162,,19,0,19,0,1,,,,,,,conf_haus,,,,,,,,,,,,,,,,,,,,,,,,,,AL,1,2,2020-11-06_04h28.09.977,configural_featural,2020.2.4,MacIntel,60,2560,1440,,0,0.10446784,1,Stimuli/H-8sim0.png,Stimuli/H-8sim0.png,,,,j,0,0.81066,,20,0,20,0,1,,,,,,,conf_haus,,,,,,,,,,,,,,,,,,,,,,,,,,AL,1,2,2020-11-06_04h28.09.977,configural_featural,2020.2.4,MacIntel,60,2560,1440,,0,-0.10446784,0,Stimuli/H-8sim1.png,Stimuli/H-8sim0.png,,,,j,1,0.58126,,21,0,21,0,1,,,,,,,conf_haus,,,,,,,,,,,,,,,,,,,,,,,,,,AL,1,2,2020-11-06_04h28.09.977,configural_featural,2020.2.4,MacIntel,60,2560,1440,,1,-0.10446784,1,Stimuli/H-8sim1.png,Stimuli/H-8sim1.png,,,,f,1,1.015385,space,22,0,22,0,1,0.415505,,,,,,conf_haus,,,,,,,,,,,,,,,,,,,,,,,,,,AL,1,2,2020-11-06_04h28.09.977,configural_featural,2020.2.4,MacIntel,60,2560,1440,,0,0.10446784,0,Stimuli/H-8sim1.png,Stimuli/H-8sim0.png,,,,j,1,2.334155,,23,0,23,0,1,,,,,,,conf_haus,,,,,,,,,,,,,,,,,,,,,,,,,,AL,1,2,2020-11-06_04h28.09.977,configural_featural,2020.2.4,MacIntel,60,2560,1440,,0,0.10446784,1,Stimuli/H-8sim2.png,Stimuli/H-8sim2.png,,,,f,1,0.836505,,24,0,24,0,1,,,,,,,conf_haus,,,,,,,,,,,,,,,,,,,,,,,,,,AL,1,2,2020-11-06_04h28.09.977,configural_featural,2020.2.4,MacIntel,60,2560,1440,,0,-0.10446784,0,Stimuli/H-8sim2.png,Stimuli/H-8sim1.png,,,,j,1,0.897325,,25,0,25,0,1,,,,,,,conf_haus,,,,,,,,,,,,,,,,,,,,,,,,,,AL,1,2,2020-11-06_04h28.09.977,configural_featural,2020.2.4,MacIntel,60,2560,1440,,0,-0.10446784,0,Stimuli/H-8sim2.png,Stimuli/H-8sim0.png,,,,j,1,0.697255,,26,0,26,0,1,,,,,,,conf_haus,,,,,,,,,,,,,,,,,,,,,,,,,,AL,1,2,2020-11-06_04h28.09.977,configural_featural,2020.2.4,MacIntel,60,2560,1440,,0,-0.10446784,1,Stimuli/H-8sim3.png,Stimuli/H-8sim3.png,,,,f,1,0.89466,,27,0,27,0,1,,,,,,,conf_haus,,,,,,,,,,,,,,,,,,,,,,,,,,AL,1,2,2020-11-06_04h28.09.977,configural_featural,2020.2.4,MacIntel,60,2560,1440,,0,0.10446784,1,Stimuli/H-8sim1.png,Stimuli/H-8sim1.png,,,,f,1,0.995515,,28,0,28,0,1,,,,,,,conf_haus,,,,,,,,,,,,,,,,,,,,,,,,,,AL,1,2,2020-11-06_04h28.09.977,configural_featural,2020.2.4,MacIntel,60,2560,1440,,0,-0.10446784,0,Stimuli/H-8sim1.png,Stimuli/H-8sim2.png,,,,f,0,1.174435,,29,0,29,0,1,,,,,,,conf_haus,,,,,,,,,,,,,,,,,,,,,,,,,,AL,1,2,2020-11-06_04h28.09.977,configural_featural,2020.2.4,MacIntel,60,2560,1440,,0,-0.10446784,1,Stimuli/H-8sim2.png,Stimuli/H-8sim2.png,,,,f,1,0.804965,,30,0,30,0,1,,,,,,,conf_haus,,,,,,,,,,,,,,,,,,,,,,,,,,AL,1,2,2020-11-06_04h28.09.977,configural_featural,2020.2.4,MacIntel,60,2560,1440,,1,-0.10446784,0,Stimuli/H-8sim2.png,Stimuli/H-8sim3.png,,,,f,0,0.678875,space,31,0,31,0,1,0.27838,,,,,,conf_haus,,,,,,,,,,,,,,,,,,,,,,,,,,AL,1,2,2020-11-06_04h28.09.977,configural_featural,2020.2.4,MacIntel,60,2560,1440,,0,-0.10446784,1,Stimuli/H-8sim0.png,Stimuli/H-8sim0.png,,,,f,1,1.013025,,32,0,32,0,1,,,,,,,conf_haus,,,,,,,,,,,,,,,,,,,,,,,,,,AL,1,2,2020-11-06_04h28.09.977,configural_featural,2020.2.4,MacIntel,60,2560,1440,,1,0.10446784,1,Stimuli/H-8sim3.png,Stimuli/H-8sim3.png,,,,f,1,0.86159,,33,0,33,0,1,,,,,,,conf_haus,,,,,,,,,,,,,,,,,,,,,,,,,,AL,1,2,2020-11-06_04h28.09.977,configural_featural,2020.2.4,MacIntel,60,2560,1440,,0,0.10446784,0,Stimuli/H-8sim2.png,Stimuli/H-8sim3.png,,,,j,1,1.198495,,34,0,34,0,1,,,,,,,conf_haus,,,,,,,,,,,,,,,,,,,,,,,,,,AL,1,2,2020-11-06_04h28.09.977,configural_featural,2020.2.4,MacIntel,60,2560,1440,,0,-0.10446784,0,Stimuli/H-8sim3.png,Stimuli/H-8sim2.png,,,,f,0,2.654555,,35,0,35,0,1,,,,,,,conf_haus,,,,,,,,,,,,,,,,,,,,,,,,,,AL,1,2,2020-11-06_04h28.09.977,configural_featural,2020.2.4,MacIntel,60,2560,1440,,0,-0.10446784,1,Stimuli/H-8sim2.png,Stimuli/H-8sim2.png,,,,j,0,0.7887,,36,0,36,0,1,,,,,,,conf_haus,,,,,,,,,,,,,,,,,,,,,,,,,,AL,1,2,2020-11-06_04h28.09.977,configural_featural,2020.2.4,MacIntel,60,2560,1440,,0,0.10446784,0,Stimuli/H-8sim0.png,Stimuli/H-8sim2.png,,,,j,1,0.73634,,37,0,37,0,1,,,,,,,conf_haus,,,,,,,,,,,,,,,,,,,,,,,,,,AL,1,2,2020-11-06_04h28.09.977,configural_featural,2020.2.4,MacIntel,60,2560,1440,,1,0.10446784,0,Stimuli/H-8sim2.png,Stimuli/H-8sim0.png,,,,j,1,0.748955,space,38,0,38,0,1,0.09862,,,,,,conf_haus,,,,,,,,,,,,,,,,,,,,,,,,,,AL,1,2,2020-11-06_04h28.09.977,configural_featural,2020.2.4,MacIntel,60,2560,1440,,1,-0.10446784,0,Stimuli/H-8sim3.png,Stimuli/H-8sim0.png,,,,j,1,0.66488,,39,0,39,0,1,,,,,,,conf_haus,,,,,,,,,,,,,,,,,,,,,,,,,,AL,1,2,2020-11-06_04h28.09.977,configural_featural,2020.2.4,MacIntel,60,2560,1440,,0,-0.10446784,1,Stimuli/H-8sim3.png,Stimuli/H-8sim3.png,,,,f,1,1.408385,,40,0,40,0,1,,,,,,,conf_haus,,,,,,,,,,,,,,,,,,,,,,,,,,AL,1,2,2020-11-06_04h28.09.977,configural_featural,2020.2.4,MacIntel,60,2560,1440,,0,-0.10446784,1,Stimuli/H-8sim1.png,Stimuli/H-8sim1.png,,,,f,1,0.537495,,41,0,41,0,1,,,,,,,conf_haus,,,,,,,,,,,,,,,,,,,,,,,,,,AL,1,2,2020-11-06_04h28.09.977,configural_featural,2020.2.4,MacIntel,60,2560,1440,,0,0.10446784,0,Stimuli/H-8sim0.png,Stimuli/H-8sim3.png,,,,f,0,1.6863,,42,0,42,0,1,,,,,,,conf_haus,,,,,,,,,,,,,,,,,,,,,,,,,,AL,1,2,2020-11-06_04h28.09.977,configural_featural,2020.2.4,MacIntel,60,2560,1440,,1,0.10446784,1,Stimuli/H-8sim2.png,Stimuli/H-8sim2.png,,,,j,0,0.045215,,43,0,43,0,1,,,,,,,conf_haus,,,,,,,,,,,,,,,,,,,,,,,,,,AL,1,2,2020-11-06_04h28.09.977,configural_featural,2020.2.4,MacIntel,60,2560,1440,,0,0.10446784,0,Stimuli/H-8sim1.png,Stimuli/H-8sim2.png,,,,f,0,1.76662,,44,0,44,0,1,,,,,,,conf_haus,,,,,,,,,,,,,,,,,,,,,,,,,,AL,1,2,2020-11-06_04h28.09.977,configural_featural,2020.2.4,MacIntel,60,2560,1440,,0,-0.10446784,0,Stimuli/H-8sim1.png,Stimuli/H-8sim3.png,,,,j,1,0.752475,,45,0,45,0,1,,,,,,,conf_haus,,,,,,,,,,,,,,,,,,,,,,,,,,AL,1,2,2020-11-06_04h28.09.977,configural_featural,2020.2.4,MacIntel,60,2560,1440,,0,0.10446784,1,Stimuli/H-8sim0.png,Stimuli/H-8sim0.png,,,,j,0,0.83755,,46,0,46,0,1,,,,,,,conf_haus,,,,,,,,,,,,,,,,,,,,,,,,,,AL,1,2,2020-11-06_04h28.09.977,configural_featural,2020.2.4,MacIntel,60,2560,1440,,0,0.10446784,1,Stimuli/H-8sim1.png,Stimuli/H-8sim1.png,,,,j,0,0.811525,,47,0,47,0,1,,,,,,,conf_haus,,,,,,,,,,,,,,,,,,,,,,,,,,AL,1,2,2020-11-06_04h28.09.977,configural_featural,2020.2.4,MacIntel,60,2560,1440,,,,,,,,,,,,,,,,,,,,1,1,5,1,1,conf_haus,Designs/instructions_haus_1234.png,,,,,,,,,,,,,,,,,,,,,,,,,AL,1,2,2020-11-06_04h28.09.977,configural_featural,2020.2.4,MacIntel,60,2560,1440,,0,0.10446784,1,Stimuli/f24.png,Stimuli/f24.png,,,,f,1,1.063975,,0,0,0,0,1,,,,,,,feat_face,,,,,,,,,,,,,,,,,,,,,,,,,,AL,1,2,2020-11-06_04h28.09.977,configural_featural,2020.2.4,MacIntel,60,2560,1440,,0,-0.10446784,1,Stimuli/f15.png,Stimuli/f15.png,,,,f,1,0.46614,,1,0,1,0,1,,,,,,,feat_face,,,,,,,,,,,,,,,,,,,,,,,,,,AL,1,2,2020-11-06_04h28.09.977,configural_featural,2020.2.4,MacIntel,60,2560,1440,,0,-0.10446784,0,Stimuli/f142.png,Stimuli/f131.png,,,,j,1,0.854505,,2,0,2,0,1,,,,,,,feat_face,,,,,,,,,,,,,,,,,,,,,,,,,,AL,1,2,2020-11-06_04h28.09.977,configural_featural,2020.2.4,MacIntel,60,2560,1440,,0,-0.10446784,0,Stimuli/f24.png,Stimuli/f131.png,,,,j,1,0.543175,,3,0,3,0,1,,,,,,,feat_face,,,,,,,,,,,,,,,,,,,,,,,,,,AL,1,2,2020-11-06_04h28.09.977,configural_featural,2020.2.4,MacIntel,60,2560,1440,,0,-0.10446784,1,Stimuli/f24.png,Stimuli/f24.png,,,,j,0,0.66668,,4,0,4,0,1,,,,,,,feat_face,,,,,,,,,,,,,,,,,,,,,,,,,,AL,1,2,2020-11-06_04h28.09.977,configural_featural,2020.2.4,MacIntel,60,2560,1440,,0,0.10446784,0,Stimuli/f15.png,Stimuli/f142.png,,,,j,1,0.66702,,5,0,5,0,1,,,,,,,feat_face,,,,,,,,,,,,,,,,,,,,,,,,,,AL,1,2,2020-11-06_04h28.09.977,configural_featural,2020.2.4,MacIntel,60,2560,1440,,0,-0.10446784,1,Stimuli/f131.png,Stimuli/f131.png,,,,f,1,0.538865,,6,0,6,0,1,,,,,,,feat_face,,,,,,,,,,,,,,,,,,,,,,,,,,AL,1,2,2020-11-06_04h28.09.977,configural_featural,2020.2.4,MacIntel,60,2560,1440,,0,0.10446784,0,Stimuli/f131.png,Stimuli/f142.png,,,,f,0,1.1118,,7,0,7,0,1,,,,,,,feat_face,,,,,,,,,,,,,,,,,,,,,,,,,,AL,1,2,2020-11-06_04h28.09.977,configural_featural,2020.2.4,MacIntel,60,2560,1440,,0,0.10446784,1,Stimuli/f131.png,Stimuli/f131.png,,,,j,0,0.766135,,8,0,8,0,1,,,,,,,feat_face,,,,,,,,,,,,,,,,,,,,,,,,,,AL,1,2,2020-11-06_04h28.09.977,configural_featural,2020.2.4,MacIntel,60,2560,1440,,0,-0.10446784,0,Stimuli/f131.png,Stimuli/f142.png,,,,j,1,1.321065,,9,0,9,0,1,,,,,,,feat_face,,,,,,,,,,,,,,,,,,,,,,,,,,AL,1,2,2020-11-06_04h28.09.977,configural_featural,2020.2.4,MacIntel,60,2560,1440,,0,0.10446784,0,Stimuli/f24.png,Stimuli/f142.png,,,,j,1,0.685155,,10,0,10,0,1,,,,,,,feat_face,,,,,,,,,,,,,,,,,,,,,,,,,,AL,1,2,2020-11-06_04h28.09.977,configural_featural,2020.2.4,MacIntel,60,2560,1440,,0,-0.10446784,1,Stimuli/f142.png,Stimuli/f142.png,,,,f,1,0.65222,,11,0,11,0,1,,,,,,,feat_face,,,,,,,,,,,,,,,,,,,,,,,,,,AL,1,2,2020-11-06_04h28.09.977,configural_featural,2020.2.4,MacIntel,60,2560,1440,,0,-0.10446784,1,Stimuli/f131.png,Stimuli/f131.png,,,,f,1,0.78226,,12,0,12,0,1,,,,,,,feat_face,,,,,,,,,,,,,,,,,,,,,,,,,,AL,1,2,2020-11-06_04h28.09.977,configural_featural,2020.2.4,MacIntel,60,2560,1440,,0,0.10446784,0,Stimuli/f142.png,Stimuli/f15.png,,,,f,0,0.833,,13,0,13,0,1,,,,,,,feat_face,,,,,,,,,,,,,,,,,,,,,,,,,,AL,1,2,2020-11-06_04h28.09.977,configural_featural,2020.2.4,MacIntel,60,2560,1440,,0,-0.10446784,0,Stimuli/f142.png,Stimuli/f24.png,,,,f,0,0.99827,,14,0,14,0,1,,,,,,,feat_face,,,,,,,,,,,,,,,,,,,,,,,,,,AL,1,2,2020-11-06_04h28.09.977,configural_featural,2020.2.4,MacIntel,60,2560,1440,,0,-0.10446784,1,Stimuli/f24.png,Stimuli/f24.png,,,,f,1,0.90621,,15,0,15,0,1,,,,,,,feat_face,,,,,,,,,,,,,,,,,,,,,,,,,,AL,1,2,2020-11-06_04h28.09.977,configural_featural,2020.2.4,MacIntel,60,2560,1440,,0,0.10446784,1,Stimuli/f15.png,Stimuli/f15.png,,,,f,1,0.4157,,16,0,16,0,1,,,,,,,feat_face,,,,,,,,,,,,,,,,,,,,,,,,,,AL,1,2,2020-11-06_04h28.09.977,configural_featural,2020.2.4,MacIntel,60,2560,1440,,0,0.10446784,0,Stimuli/f131.png,Stimuli/f24.png,,,,f,0,0.83342,,17,0,17,0,1,,,,,,,feat_face,,,,,,,,,,,,,,,,,,,,,,,,,,AL,1,2,2020-11-06_04h28.09.977,configural_featural,2020.2.4,MacIntel,60,2560,1440,,1,0.10446784,1,Stimuli/f142.png,Stimuli/f142.png,,,,f,1,0.67327,space,18,0,18,0,1,0.38548,,,,,,feat_face,,,,,,,,,,,,,,,,,,,,,,,,,,AL,1,2,2020-11-06_04h28.09.977,configural_featural,2020.2.4,MacIntel,60,2560,1440,,0,0.10446784,0,Stimuli/f142.png,Stimuli/f131.png,,,,j,1,0.598095,,19,0,19,0,1,,,,,,,feat_face,,,,,,,,,,,,,,,,,,,,,,,,,,AL,1,2,2020-11-06_04h28.09.977,configural_featural,2020.2.4,MacIntel,60,2560,1440,,0,-0.10446784,1,Stimuli/f142.png,Stimuli/f142.png,,,,f,1,0.402175,,20,0,20,0,1,,,,,,,feat_face,,,,,,,,,,,,,,,,,,,,,,,,,,AL,1,2,2020-11-06_04h28.09.977,configural_featural,2020.2.4,MacIntel,60,2560,1440,,0,-0.10446784,0,Stimuli/f24.png,Stimuli/f15.png,,,,j,1,0.540395,,21,0,21,0,1,,,,,,,feat_face,,,,,,,,,,,,,,,,,,,,,,,,,,AL,1,2,2020-11-06_04h28.09.977,configural_featural,2020.2.4,MacIntel,60,2560,1440,,0,0.10446784,0,Stimuli/f131.png,Stimuli/f15.png,,,,j,1,1.26631,,22,0,22,0,1,,,,,,,feat_face,,,,,,,,,,,,,,,,,,,,,,,,,,AL,1,2,2020-11-06_04h28.09.977,configural_featural,2020.2.4,MacIntel,60,2560,1440,,0,0.10446784,1,Stimuli/f142.png,Stimuli/f142.png,,,,j,0,0.89789,,23,0,23,0,1,,,,,,,feat_face,,,,,,,,,,,,,,,,,,,,,,,,,,AL,1,2,2020-11-06_04h28.09.977,configural_featural,2020.2.4,MacIntel,60,2560,1440,,0,-0.10446784,1,Stimuli/f15.png,Stimuli/f15.png,,,,f,1,0.74211,,24,0,24,0,1,,,,,,,feat_face,,,,,,,,,,,,,,,,,,,,,,,,,,AL,1,2,2020-11-06_04h28.09.977,configural_featural,2020.2.4,MacIntel,60,2560,1440,,0,-0.10446784,1,Stimuli/f15.png,Stimuli/f15.png,,,,f,1,0.466825,,25,0,25,0,1,,,,,,,feat_face,,,,,,,,,,,,,,,,,,,,,,,,,,AL,1,2,2020-11-06_04h28.09.977,configural_featural,2020.2.4,MacIntel,60,2560,1440,,0,-0.10446784,0,Stimuli/f15.png,Stimuli/f24.png,,,,j,1,0.753575,,26,0,26,0,1,,,,,,,feat_face,,,,,,,,,,,,,,,,,,,,,,,,,,AL,1,2,2020-11-06_04h28.09.977,configural_featural,2020.2.4,MacIntel,60,2560,1440,,0,0.10446784,0,Stimuli/f24.png,Stimuli/f131.png,,,,f,0,1.50291,,27,0,27,0,1,,,,,,,feat_face,,,,,,,,,,,,,,,,,,,,,,,,,,AL,1,2,2020-11-06_04h28.09.977,configural_featural,2020.2.4,MacIntel,60,2560,1440,,0,-0.10446784,0,Stimuli/f24.png,Stimuli/f142.png,,,,j,1,1.35606,,28,0,28,0,1,,,,,,,feat_face,,,,,,,,,,,,,,,,,,,,,,,,,,AL,1,2,2020-11-06_04h28.09.977,configural_featural,2020.2.4,MacIntel,60,2560,1440,,0,0.10446784,1,Stimuli/f24.png,Stimuli/f24.png,,,,f,1,0.806925,,29,0,29,0,1,,,,,,,feat_face,,,,,,,,,,,,,,,,,,,,,,,,,,AL,1,2,2020-11-06_04h28.09.977,configural_featural,2020.2.4,MacIntel,60,2560,1440,,0,-0.10446784,1,Stimuli/f24.png,Stimuli/f24.png,,,,f,1,0.519955,,30,0,30,0,1,,,,,,,feat_face,,,,,,,,,,,,,,,,,,,,,,,,,,AL,1,2,2020-11-06_04h28.09.977,configural_featural,2020.2.4,MacIntel,60,2560,1440,,0,0.10446784,0,Stimuli/f142.png,Stimuli/f24.png,,,,f,0,0.598095,,31,0,31,0,1,,,,,,,feat_face,,,,,,,,,,,,,,,,,,,,,,,,,,AL,1,2,2020-11-06_04h28.09.977,configural_featural,2020.2.4,MacIntel,60,2560,1440,,0,-0.10446784,0,Stimuli/f131.png,Stimuli/f24.png,,,,f,0,0.54536,,32,0,32,0,1,,,,,,,feat_face,,,,,,,,,,,,,,,,,,,,,,,,,,AL,1,2,2020-11-06_04h28.09.977,configural_featural,2020.2.4,MacIntel,60,2560,1440,,1,-0.10446784,1,Stimuli/f142.png,Stimuli/f142.png,,,,f,1,0.972575,space,33,0,33,0,1,0.316525,,,,,,feat_face,,,,,,,,,,,,,,,,,,,,,,,,,,AL,1,2,2020-11-06_04h28.09.977,configural_featural,2020.2.4,MacIntel,60,2560,1440,,0,-0.10446784,0,Stimuli/f142.png,Stimuli/f15.png,,,,f,0,0.711485,,34,0,34,0,1,,,,,,,feat_face,,,,,,,,,,,,,,,,,,,,,,,,,,AL,1,2,2020-11-06_04h28.09.977,configural_featural,2020.2.4,MacIntel,60,2560,1440,,1,0.10446784,1,Stimuli/f131.png,Stimuli/f131.png,,,,f,1,1.17363,space,35,0,35,0,1,0.47713,,,,,,feat_face,,,,,,,,,,,,,,,,,,,,,,,,,,AL,1,2,2020-11-06_04h28.09.977,configural_featural,2020.2.4,MacIntel,60,2560,1440,,0,0.10446784,0,Stimuli/f15.png,Stimuli/f24.png,,,,j,1,0.49799,,36,0,36,0,1,,,,,,,feat_face,,,,,,,,,,,,,,,,,,,,,,,,,,AL,1,2,2020-11-06_04h28.09.977,configural_featural,2020.2.4,MacIntel,60,2560,1440,,0,0.10446784,1,Stimuli/f15.png,Stimuli/f15.png,,,,j,0,1.10837,,37,0,37,0,1,,,,,,,feat_face,,,,,,,,,,,,,,,,,,,,,,,,,,AL,1,2,2020-11-06_04h28.09.977,configural_featural,2020.2.4,MacIntel,60,2560,1440,,1,0.10446784,1,Stimuli/f142.png,Stimuli/f142.png,,,,f,1,0.912325,space,38,0,38,0,1,0.37635,,,,,,feat_face,,,,,,,,,,,,,,,,,,,,,,,,,,AL,1,2,2020-11-06_04h28.09.977,configural_featural,2020.2.4,MacIntel,60,2560,1440,,0,0.10446784,0,Stimuli/f15.png,Stimuli/f131.png,,,,j,1,2.637515,,39,0,39,0,1,,,,,,,feat_face,,,,,,,,,,,,,,,,,,,,,,,,,,AL,1,2,2020-11-06_04h28.09.977,configural_featural,2020.2.4,MacIntel,60,2560,1440,,0,-0.10446784,0,Stimuli/f131.png,Stimuli/f15.png,,,,j,1,1.036955,,40,0,40,0,1,,,,,,,feat_face,,,,,,,,,,,,,,,,,,,,,,,,,,AL,1,2,2020-11-06_04h28.09.977,configural_featural,2020.2.4,MacIntel,60,2560,1440,,0,-0.10446784,1,Stimuli/f131.png,Stimuli/f131.png,,,,j,0,0.832925,,41,0,41,0,1,,,,,,,feat_face,,,,,,,,,,,,,,,,,,,,,,,,,,AL,1,2,2020-11-06_04h28.09.977,configural_featural,2020.2.4,MacIntel,60,2560,1440,,0,-0.10446784,0,Stimuli/f15.png,Stimuli/f142.png,,,,j,1,2.912645,,42,0,42,0,1,,,,,,,feat_face,,,,,,,,,,,,,,,,,,,,,,,,,,AL,1,2,2020-11-06_04h28.09.977,configural_featural,2020.2.4,MacIntel,60,2560,1440,,0,0.10446784,1,Stimuli/f131.png,Stimuli/f131.png,,,,j,0,0.533415,,43,0,43,0,1,,,,,,,feat_face,,,,,,,,,,,,,,,,,,,,,,,,,,AL,1,2,2020-11-06_04h28.09.977,configural_featural,2020.2.4,MacIntel,60,2560,1440,,1,-0.10446784,0,Stimuli/f15.png,Stimuli/f131.png,,,,j,1,0.545545,,44,0,44,0,1,,,,,,,feat_face,,,,,,,,,,,,,,,,,,,,,,,,,,AL,1,2,2020-11-06_04h28.09.977,configural_featural,2020.2.4,MacIntel,60,2560,1440,,1,0.10446784,1,Stimuli/f24.png,Stimuli/f24.png,,,,j,0,4.214565,space,45,0,45,0,1,0.141425,,,,,,feat_face,,,,,,,,,,,,,,,,,,,,,,,,,,AL,1,2,2020-11-06_04h28.09.977,configural_featural,2020.2.4,MacIntel,60,2560,1440,,0,0.10446784,0,Stimuli/f24.png,Stimuli/f15.png,,,,j,1,1.845315,,46,0,46,0,1,,,,,,,feat_face,,,,,,,,,,,,,,,,,,,,,,,,,,AL,1,2,2020-11-06_04h28.09.977,configural_featural,2020.2.4,MacIntel,60,2560,1440,,0,0.10446784,1,Stimuli/f15.png,Stimuli/f15.png,,,,f,1,0.76483,,47,0,47,0,1,,,,,,,feat_face,,,,,,,,,,,,,,,,,,,,,,,,,,AL,1,2,2020-11-06_04h28.09.977,configural_featural,2020.2.4,MacIntel,60,2560,1440,,,,,,,,,,,,,,,,,,,,1,2,6,2,1,feat_face,Designs/instructions_face_1234.png,,,,,,,,,,,,,,,,,,,,,,,,,AL,1,2,2020-11-06_04h28.09.977,configural_featural,2020.2.4,MacIntel,60,2560,1440,,0,0.10446784,0,Stimuli/H6sim0.png,Stimuli/H8sim0.png,,,,j,1,0.93655,,0,0,0,0,1,,,,,,,feat_haus,,,,,,,,,,,,,,,,,,,,,,,,,,AL,1,2,2020-11-06_04h28.09.977,configural_featural,2020.2.4,MacIntel,60,2560,1440,,0,-0.10446784,1,Stimuli/H6sim0.png,Stimuli/H6sim0.png,,,,f,1,0.82024,,1,0,1,0,1,,,,,,,feat_haus,,,,,,,,,,,,,,,,,,,,,,,,,,AL,1,2,2020-11-06_04h28.09.977,configural_featural,2020.2.4,MacIntel,60,2560,1440,,0,-0.10446784,0,Stimuli/H7sim0.png,Stimuli/H6sim0.png,,,,j,1,0.667415,,2,0,2,0,1,,,,,,,feat_haus,,,,,,,,,,,,,,,,,,,,,,,,,,AL,1,2,2020-11-06_04h28.09.977,configural_featural,2020.2.4,MacIntel,60,2560,1440,,0,-0.10446784,1,Stimuli/H7sim0.png,Stimuli/H7sim0.png,,,,f,1,0.63445,,3,0,3,0,1,,,,,,,feat_haus,,,,,,,,,,,,,,,,,,,,,,,,,,AL,1,2,2020-11-06_04h28.09.977,configural_featural,2020.2.4,MacIntel,60,2560,1440,,1,0.10446784,0,Stimuli/H7sim0.png,Stimuli/H5sim0.png,,,,j,1,1.299415,space,4,0,4,0,1,0.97935,,,,,,feat_haus,,,,,,,,,,,,,,,,,,,,,,,,,,AL,1,2,2020-11-06_04h28.09.977,configural_featural,2020.2.4,MacIntel,60,2560,1440,,0,0.10446784,1,Stimuli/H5sim0.png,Stimuli/H5sim0.png,,,,f,1,1.375775,,5,0,5,0,1,,,,,,,feat_haus,,,,,,,,,,,,,,,,,,,,,,,,,,AL,1,2,2020-11-06_04h28.09.977,configural_featural,2020.2.4,MacIntel,60,2560,1440,,0,-0.10446784,1,Stimuli/H8sim0.png,Stimuli/H8sim0.png,,,,f,1,0.714435,,6,0,6,0,1,,,,,,,feat_haus,,,,,,,,,,,,,,,,,,,,,,,,,,AL,1,2,2020-11-06_04h28.09.977,configural_featural,2020.2.4,MacIntel,60,2560,1440,,0,0.10446784,1,Stimuli/H7sim0.png,Stimuli/H7sim0.png,,,,f,1,0.53028,,7,0,7,0,1,,,,,,,feat_haus,,,,,,,,,,,,,,,,,,,,,,,,,,AL,1,2,2020-11-06_04h28.09.977,configural_featural,2020.2.4,MacIntel,60,2560,1440,,0,-0.10446784,0,Stimuli/H8sim0.png,Stimuli/H6sim0.png,,,,f,0,0.64541,,8,0,8,0,1,,,,,,,feat_haus,,,,,,,,,,,,,,,,,,,,,,,,,,AL,1,2,2020-11-06_04h28.09.977,configural_featural,2020.2.4,MacIntel,60,2560,1440,,0,-0.10446784,1,Stimuli/H5sim0.png,Stimuli/H5sim0.png,,,,f,1,0.581235,,9,0,9,0,1,,,,,,,feat_haus,,,,,,,,,,,,,,,,,,,,,,,,,,AL,1,2,2020-11-06_04h28.09.977,configural_featural,2020.2.4,MacIntel,60,2560,1440,,0,-0.10446784,0,Stimuli/H6sim0.png,Stimuli/H5sim0.png,,,,j,1,0.664145,,10,0,10,0,1,,,,,,,feat_haus,,,,,,,,,,,,,,,,,,,,,,,,,,AL,1,2,2020-11-06_04h28.09.977,configural_featural,2020.2.4,MacIntel,60,2560,1440,,1,0.10446784,0,Stimuli/H5sim0.png,Stimuli/H7sim0.png,,,,j,1,0.834605,,11,0,11,0,1,,,,,,,feat_haus,,,,,,,,,,,,,,,,,,,,,,,,,,AL,1,2,2020-11-06_04h28.09.977,configural_featural,2020.2.4,MacIntel,60,2560,1440,,0,-0.10446784,0,Stimuli/H8sim0.png,Stimuli/H7sim0.png,,space,,f,0,0.98598,,12,0,12,0,1,,,,,,,feat_haus,,0.23098,,,,,,,,,,,,,,,,,,,,,,,,AL,1,2,2020-11-06_04h28.09.977,configural_featural,2020.2.4,MacIntel,60,2560,1440,,0,-0.10446784,0,Stimuli/H5sim0.png,Stimuli/H8sim0.png,,,,j,1,0.732415,,13,0,13,0,1,,,,,,,feat_haus,,,,,,,,,,,,,,,,,,,,,,,,,,AL,1,2,2020-11-06_04h28.09.977,configural_featural,2020.2.4,MacIntel,60,2560,1440,,0,0.10446784,0,Stimuli/H7sim0.png,Stimuli/H8sim0.png,,,,j,1,1.47399,,14,0,14,0,1,,,,,,,feat_haus,,,,,,,,,,,,,,,,,,,,,,,,,,AL,1,2,2020-11-06_04h28.09.977,configural_featural,2020.2.4,MacIntel,60,2560,1440,,0,0.10446784,1,Stimuli/H8sim0.png,Stimuli/H8sim0.png,,,,f,1,0.66402,,15,0,15,0,1,,,,,,,feat_haus,,,,,,,,,,,,,,,,,,,,,,,,,,AL,1,2,2020-11-06_04h28.09.977,configural_featural,2020.2.4,MacIntel,60,2560,1440,,0,-0.10446784,1,Stimuli/H6sim0.png,Stimuli/H6sim0.png,,,,f,1,0.64722,,16,0,16,0,1,,,,,,,feat_haus,,,,,,,,,,,,,,,,,,,,,,,,,,AL,1,2,2020-11-06_04h28.09.977,configural_featural,2020.2.4,MacIntel,60,2560,1440,,0,-0.10446784,1,Stimuli/H5sim0.png,Stimuli/H5sim0.png,,,,f,1,0.63167,,17,0,17,0,1,,,,,,,feat_haus,,,,,,,,,,,,,,,,,,,,,,,,,,AL,1,2,2020-11-06_04h28.09.977,configural_featural,2020.2.4,MacIntel,60,2560,1440,,0,0.10446784,1,Stimuli/H6sim0.png,Stimuli/H6sim0.png,,,,f,1,0.456865,,18,0,18,0,1,,,,,,,feat_haus,,,,,,,,,,,,,,,,,,,,,,,,,,AL,1,2,2020-11-06_04h28.09.977,configural_featural,2020.2.4,MacIntel,60,2560,1440,,0,-0.10446784,0,Stimuli/H5sim0.png,Stimuli/H6sim0.png,,,,f,0,0.631165,,19,0,19,0,1,,,,,,,feat_haus,,,,,,,,,,,,,,,,,,,,,,,,,,AL,1,2,2020-11-06_04h28.09.977,configural_featural,2020.2.4,MacIntel,60,2560,1440,,0,-0.10446784,1,Stimuli/H7sim0.png,Stimuli/H7sim0.png,,,,f,1,0.68024,,20,0,20,0,1,,,,,,,feat_haus,,,,,,,,,,,,,,,,,,,,,,,,,,AL,1,2,2020-11-06_04h28.09.977,configural_featural,2020.2.4,MacIntel,60,2560,1440,,1,0.10446784,1,Stimuli/H8sim0.png,Stimuli/H8sim0.png,,,,f,1,1.378165,space,21,0,21,0,1,0.46789,,,,,,feat_haus,,,,,,,,,,,,,,,,,,,,,,,,,,AL,1,2,2020-11-06_04h28.09.977,configural_featural,2020.2.4,MacIntel,60,2560,1440,,0,0.10446784,0,Stimuli/H5sim0.png,Stimuli/H8sim0.png,,,,j,1,1.156005,,22,0,22,0,1,,,,,,,feat_haus,,,,,,,,,,,,,,,,,,,,,,,,,,AL,1,2,2020-11-06_04h28.09.977,configural_featural,2020.2.4,MacIntel,60,2560,1440,,0,0.10446784,0,Stimuli/H8sim0.png,Stimuli/H7sim0.png,,,,j,1,0.952975,,23,0,23,0,1,,,,,,,feat_haus,,,,,,,,,,,,,,,,,,,,,,,,,,AL,1,2,2020-11-06_04h28.09.977,configural_featural,2020.2.4,MacIntel,60,2560,1440,,0,-0.10446784,1,Stimuli/H8sim0.png,Stimuli/H8sim0.png,,,,f,1,0.70844,,24,0,24,0,1,,,,,,,feat_haus,,,,,,,,,,,,,,,,,,,,,,,,,,AL,1,2,2020-11-06_04h28.09.977,configural_featural,2020.2.4,MacIntel,60,2560,1440,,0,-0.10446784,0,Stimuli/H5sim0.png,Stimuli/H7sim0.png,,,,j,1,0.546305,,25,0,25,0,1,,,,,,,feat_haus,,,,,,,,,,,,,,,,,,,,,,,,,,AL,1,2,2020-11-06_04h28.09.977,configural_featural,2020.2.4,MacIntel,60,2560,1440,,1,0.10446784,1,Stimuli/H5sim0.png,Stimuli/H5sim0.png,,,,f,1,0.853215,space,26,0,26,0,1,0.3333,,,,,,feat_haus,,,,,,,,,,,,,,,,,,,,,,,,,,AL,1,2,2020-11-06_04h28.09.977,configural_featural,2020.2.4,MacIntel,60,2560,1440,,0,0.10446784,1,Stimuli/H7sim0.png,Stimuli/H7sim0.png,,,,f,1,0.66514,,27,0,27,0,1,,,,,,,feat_haus,,,,,,,,,,,,,,,,,,,,,,,,,,AL,1,2,2020-11-06_04h28.09.977,configural_featural,2020.2.4,MacIntel,60,2560,1440,,0,-0.10446784,0,Stimuli/H8sim0.png,Stimuli/H5sim0.png,,,,j,1,0.45286,,28,0,28,0,1,,,,,,,feat_haus,,,,,,,,,,,,,,,,,,,,,,,,,,AL,1,2,2020-11-06_04h28.09.977,configural_featural,2020.2.4,MacIntel,60,2560,1440,,0,0.10446784,0,Stimuli/H8sim0.png,Stimuli/H6sim0.png,,,,j,1,1.037855,,29,0,29,0,1,,,,,,,feat_haus,,,,,,,,,,,,,,,,,,,,,,,,,,AL,1,2,2020-11-06_04h28.09.977,configural_featural,2020.2.4,MacIntel,60,2560,1440,,0,0.10446784,0,Stimuli/H6sim0.png,Stimuli/H7sim0.png,,,,j,1,0.933475,,30,0,30,0,1,,,,,,,feat_haus,,,,,,,,,,,,,,,,,,,,,,,,,,AL,1,2,2020-11-06_04h28.09.977,configural_featural,2020.2.4,MacIntel,60,2560,1440,,0,-0.10446784,1,Stimuli/H6sim0.png,Stimuli/H6sim0.png,,,,f,1,0.706755,,31,0,31,0,1,,,,,,,feat_haus,,,,,,,,,,,,,,,,,,,,,,,,,,AL,1,2,2020-11-06_04h28.09.977,configural_featural,2020.2.4,MacIntel,60,2560,1440,,0,-0.10446784,1,Stimuli/H8sim0.png,Stimuli/H8sim0.png,,,,f,1,0.640625,,32,0,32,0,1,,,,,,,feat_haus,,,,,,,,,,,,,,,,,,,,,,,,,,AL,1,2,2020-11-06_04h28.09.977,configural_featural,2020.2.4,MacIntel,60,2560,1440,,0,0.10446784,1,Stimuli/H6sim0.png,Stimuli/H6sim0.png,,,,f,1,0.57333,,33,0,33,0,1,,,,,,,feat_haus,,,,,,,,,,,,,,,,,,,,,,,,,,AL,1,2,2020-11-06_04h28.09.977,configural_featural,2020.2.4,MacIntel,60,2560,1440,,0,-0.10446784,0,Stimuli/H6sim0.png,Stimuli/H7sim0.png,,,,j,1,0.507315,,34,0,34,0,1,,,,,,,feat_haus,,,,,,,,,,,,,,,,,,,,,,,,,,AL,1,2,2020-11-06_04h28.09.977,configural_featural,2020.2.4,MacIntel,60,2560,1440,,1,0.10446784,0,Stimuli/H7sim0.png,Stimuli/H6sim0.png,,,,f,0,0.764775,space,35,0,35,0,1,0.37701,,,,,,feat_haus,,,,,,,,,,,,,,,,,,,,,,,,,,AL,1,2,2020-11-06_04h28.09.977,configural_featural,2020.2.4,MacIntel,60,2560,1440,,0,-0.10446784,0,Stimuli/H7sim0.png,Stimuli/H5sim0.png,,,,j,1,0.599915,,36,0,36,0,1,,,,,,,feat_haus,,,,,,,,,,,,,,,,,,,,,,,,,,AL,1,2,2020-11-06_04h28.09.977,configural_featural,2020.2.4,MacIntel,60,2560,1440,,0,-0.10446784,0,Stimuli/H6sim0.png,Stimuli/H8sim0.png,,,,j,1,0.53415,,37,0,37,0,1,,,,,,,feat_haus,,,,,,,,,,,,,,,,,,,,,,,,,,AL,1,2,2020-11-06_04h28.09.977,configural_featural,2020.2.4,MacIntel,60,2560,1440,,1,0.10446784,0,Stimuli/H8sim0.png,Stimuli/H5sim0.png,,,,j,1,1.92351,space,38,0,38,0,1,0.89915,,,,,,feat_haus,,,,,,,,,,,,,,,,,,,,,,,,,,AL,1,2,2020-11-06_04h28.09.977,configural_featural,2020.2.4,MacIntel,60,2560,1440,,0,0.10446784,1,Stimuli/H5sim0.png,Stimuli/H5sim0.png,,,,f,1,0.687265,,39,0,39,0,1,,,,,,,feat_haus,,,,,,,,,,,,,,,,,,,,,,,,,,AL,1,2,2020-11-06_04h28.09.977,configural_featural,2020.2.4,MacIntel,60,2560,1440,,0,0.10446784,1,Stimuli/H7sim0.png,Stimuli/H7sim0.png,,,,f,1,0.53056,,40,0,40,0,1,,,,,,,feat_haus,,,,,,,,,,,,,,,,,,,,,,,,,,AL,1,2,2020-11-06_04h28.09.977,configural_featural,2020.2.4,MacIntel,60,2560,1440,,0,-0.10446784,1,Stimuli/H5sim0.png,Stimuli/H5sim0.png,,,,f,1,0.730915,,41,0,41,0,1,,,,,,,feat_haus,,,,,,,,,,,,,,,,,,,,,,,,,,AL,1,2,2020-11-06_04h28.09.977,configural_featural,2020.2.4,MacIntel,60,2560,1440,,0,-0.10446784,1,Stimuli/H7sim0.png,Stimuli/H7sim0.png,,,,f,1,0.498425,,42,0,42,0,1,,,,,,,feat_haus,,,,,,,,,,,,,,,,,,,,,,,,,,AL,1,2,2020-11-06_04h28.09.977,configural_featural,2020.2.4,MacIntel,60,2560,1440,,0,-0.10446784,0,Stimuli/H7sim0.png,Stimuli/H8sim0.png,,,,f,0,0.61338,,43,0,43,0,1,,,,,,,feat_haus,,,,,,,,,,,,,,,,,,,,,,,,,,AL,1,2,2020-11-06_04h28.09.977,configural_featural,2020.2.4,MacIntel,60,2560,1440,,0,0.10446784,1,Stimuli/H8sim0.png,Stimuli/H8sim0.png,,,,f,1,0.464555,,44,0,44,0,1,,,,,,,feat_haus,,,,,,,,,,,,,,,,,,,,,,,,,,AL,1,2,2020-11-06_04h28.09.977,configural_featural,2020.2.4,MacIntel,60,2560,1440,,0,0.10446784,1,Stimuli/H6sim0.png,Stimuli/H6sim0.png,,,,f,1,0.79923,,45,0,45,0,1,,,,,,,feat_haus,,,,,,,,,,,,,,,,,,,,,,,,,,AL,1,2,2020-11-06_04h28.09.977,configural_featural,2020.2.4,MacIntel,60,2560,1440,,0,0.10446784,0,Stimuli/H5sim0.png,Stimuli/H6sim0.png,,,,f,0,0.468805,,46,0,46,0,1,,,,,,,feat_haus,,,,,,,,,,,,,,,,,,,,,,,,,,AL,1,2,2020-11-06_04h28.09.977,configural_featural,2020.2.4,MacIntel,60,2560,1440,,0,0.10446784,0,Stimuli/H6sim0.png,Stimuli/H5sim0.png,,,,f,0,0.828295,,47,0,47,0,1,,,,,,,feat_haus,,,,,,,,,,,,,,,,,,,,,,,,,,AL,1,2,2020-11-06_04h28.09.977,configural_featural,2020.2.4,MacIntel,60,2560,1440,,,,,,,,,,,,,,,,,,,,1,3,7,3,1,feat_haus,Designs/instructions_haus_1234.png,