X Scale,Y Scale,prePrac1Resp.keys,prePrac1Resp.corr,prePrac1Resp.rt,key_resp_10.keys,key_resp_10.corr,key_resp_13.keys,key_resp_13.corr,key_resp_13.rt,pfix_switches,Pside,ptrial_type1S0D,ptarget,pprobe,prac_resp.keys,prac_resp.corr,prac_resp.rt,prac_fix_resp.keys,prac_fix_resp.corr,pTrials.thisRepN,pTrials.thisTrialN,pTrials.thisN,pTrials.thisIndex,pTrials.ran,participant,design,position,date,expName,psychopyVersion,OS,frameRate,xResolution,yResolution,prac_fix_resp.rt,fix_switches,side,trial_type1S0D,target,probe,key_resp_3.keys,key_resp_4.keys,key_resp_5.keys,key_resp.keys,key_resp.corr,key_resp.rt,key_resp_6.keys,trials.thisRepN,trials.thisTrialN,trials.thisN,trials.thisIndex,trials.ran,key_resp_6.rt,blocks.thisRepN,blocks.thisTrialN,blocks.thisN,blocks.thisIndex,blocks.ran,block_type,instruction_text0.0564,0.0568,j,1,4.79654,,0,f,1,6.34596,0,0.14640312,0,Stimuli/nemo2.png,Stimuli/nemo2.png,f,1,1.38286,,1,0,0,0,0,1,DP,2,2,2020-11-16_09h33.10.896,configural_featural,2020.2.4,Linux x86_64,60,1920,1080,,,,,,,,,,,,,,,,,,,,,,,,,,,,,,,,,,,,0,0.14640312,1,Stimuli/dory1.png,Stimuli/dory2.png,j,1,1.10985,,1,1,0,1,0,1,DP,2,2,2020-11-16_09h33.10.896,configural_featural,2020.2.4,Linux x86_64,60,1920,1080,,,,,,,,,,,,,,,,,,,,,,,,,,,,,,,,,,,,0,0.14640312,1,Stimuli/dory2.png,Stimuli/dory1.png,j,1,1.777895,,1,2,0,2,0,1,DP,2,2,2020-11-16_09h33.10.896,configural_featural,2020.2.4,Linux x86_64,60,1920,1080,,,,,,,,,,,,,,,,,,,,,,,,,,,,,,,,,,,,1,0.14640312,1,Stimuli/nemo2.png,Stimuli/nemo1.jpg,j,1,3.54332,space,1,3,0,3,0,1,DP,2,2,2020-11-16_09h33.10.896,configural_featural,2020.2.4,Linux x86_64,60,1920,1080,2.1803,,,,,,,,,,,,,,,,,,,,,,,,,,,,,,,,,,,0,-0.14640312,1,Stimuli/nemo1.jpg,Stimuli/nemo2.png,j,1,1.94371,,1,4,0,4,0,1,DP,2,2,2020-11-16_09h33.10.896,configural_featural,2020.2.4,Linux x86_64,60,1920,1080,,,,,,,,,,,,,,,,,,,,,,,,,,,,,,,,,,,,0,-0.14640312,1,Stimuli/dory1.png,Stimuli/dory2.png,j,1,0.943185,,1,5,0,5,0,1,DP,2,2,2020-11-16_09h33.10.896,configural_featural,2020.2.4,Linux x86_64,60,1920,1080,,,,,,,,,,,,,,,,,,,,,,,,,,,,,,,,,,,,1,0.14640312,0,Stimuli/dory1.png,Stimuli/dory1.png,f,1,0.863225,space,1,6,0,6,0,1,DP,2,2,2020-11-16_09h33.10.896,configural_featural,2020.2.4,Linux x86_64,60,1920,1080,1.54046,,,,,,,,,,,,,,,,,,,,,,,,,,,,,,,,,,,1,0.14640312,0,Stimuli/dory2.png,Stimuli/dory2.png,f,1,1.14173,,0,7,0,7,0,1,DP,2,2,2020-11-16_09h33.10.896,configural_featural,2020.2.4,Linux x86_64,60,1920,1080,,,,,,,,,,,,,,,,,,,,,,,,,,,,,,,,,,,,0,-0.14640312,0,Stimuli/nemo1.jpg,Stimuli/nemo1.jpg,f,1,1.63022,,1,8,0,8,0,1,DP,2,2,2020-11-16_09h33.10.896,configural_featural,2020.2.4,Linux x86_64,60,1920,1080,,,,,,,,,,,,,,,,,,,,,,,,,,,,,,,,,,,,0,-0.14640312,1,Stimuli/nemo1.jpg,Stimuli/nemo2.png,j,1,0.607785,,1,9,0,9,0,1,DP,2,2,2020-11-16_09h33.10.896,configural_featural,2020.2.4,Linux x86_64,60,1920,1080,,,,,,,,,,,,,,,,,,,,,,,,,,,,,,,,,,,,0,-0.14640312,0,Stimuli/nemo2.png,Stimuli/nemo2.png,f,1,1.65695,,1,10,0,10,0,1,DP,2,2,2020-11-16_09h33.10.896,configural_featural,2020.2.4,Linux x86_64,60,1920,1080,,,,,,,,,,,,,,,,,,,,,,,,,,,,,,,,,,,,0,-0.14640312,0,Stimuli/dory2.png,Stimuli/dory2.png,f,1,0.657765,,1,11,0,11,0,1,DP,2,2,2020-11-16_09h33.10.896,configural_featural,2020.2.4,Linux x86_64,60,1920,1080,,,,,,,,,,,,,,,,,,,,,,,,,,,,,,,,,,,,,,,,,,,,,,,,,,,DP,2,2,2020-11-16_09h33.10.896,configural_featural,2020.2.4,Linux x86_64,60,1920,1080,,0,-0.19509888,1,Stimuli/f142.png,Stimuli/f142.png,,,,f,1,1.656125,,0,0,0,0,1,,,,,,,feat_face,,,,,,,,,,,,,,,,,,,,,,,,,,DP,2,2,2020-11-16_09h33.10.896,configural_featural,2020.2.4,Linux x86_64,60,1920,1080,,0,-0.19509888,1,Stimuli/f15.png,Stimuli/f15.png,,,,f,1,1.592755,,1,0,1,0,1,,,,,,,feat_face,,,,,,,,,,,,,,,,,,,,,,,,,,DP,2,2,2020-11-16_09h33.10.896,configural_featural,2020.2.4,Linux x86_64,60,1920,1080,,0,-0.19509888,0,Stimuli/f142.png,Stimuli/f15.png,,,,j,1,2.79324,,2,0,2,0,1,,,,,,,feat_face,,,,,,,,,,,,,,,,,,,,,,,,,,DP,2,2,2020-11-16_09h33.10.896,configural_featural,2020.2.4,Linux x86_64,60,1920,1080,,0,-0.19509888,0,Stimuli/f131.png,Stimuli/f142.png,,,,f,0,1.928405,,3,0,3,0,1,,,,,,,feat_face,,,,,,,,,,,,,,,,,,,,,,,,,,DP,2,2,2020-11-16_09h33.10.896,configural_featural,2020.2.4,Linux x86_64,60,1920,1080,,0,-0.19509888,0,Stimuli/f131.png,Stimuli/f15.png,,,,f,0,2.35773,,4,0,4,0,1,,,,,,,feat_face,,,,,,,,,,,,,,,,,,,,,,,,,,DP,2,2,2020-11-16_09h33.10.896,configural_featural,2020.2.4,Linux x86_64,60,1920,1080,,0,0.19509888,1,Stimuli/f142.png,Stimuli/f142.png,,,,j,0,2.54327,,5,0,5,0,1,,,,,,,feat_face,,,,,,,,,,,,,,,,,,,,,,,,,,DP,2,2,2020-11-16_09h33.10.896,configural_featural,2020.2.4,Linux x86_64,60,1920,1080,,0,0.19509888,1,Stimuli/f131.png,Stimuli/f131.png,,,,f,1,0.908455,,6,0,6,0,1,,,,,,,feat_face,,,,,,,,,,,,,,,,,,,,,,,,,,DP,2,2,2020-11-16_09h33.10.896,configural_featural,2020.2.4,Linux x86_64,60,1920,1080,,0,-0.19509888,1,Stimuli/f24.png,Stimuli/f24.png,,,,f,1,3.908855,,7,0,7,0,1,,,,,,,feat_face,,,,,,,,,,,,,,,,,,,,,,,,,,DP,2,2,2020-11-16_09h33.10.896,configural_featural,2020.2.4,Linux x86_64,60,1920,1080,,0,-0.19509888,1,Stimuli/f131.png,Stimuli/f131.png,,,,f,1,2.70624,,8,0,8,0,1,,,,,,,feat_face,,,,,,,,,,,,,,,,,,,,,,,,,,DP,2,2,2020-11-16_09h33.10.896,configural_featural,2020.2.4,Linux x86_64,60,1920,1080,,0,-0.19509888,0,Stimuli/f131.png,Stimuli/f24.png,,,,j,1,1.049645,,9,0,9,0,1,,,,,,,feat_face,,,,,,,,,,,,,,,,,,,,,,,,,,DP,2,2,2020-11-16_09h33.10.896,configural_featural,2020.2.4,Linux x86_64,60,1920,1080,,1,0.19509888,0,Stimuli/f15.png,Stimuli/f131.png,,,,j,1,1.86628,space,10,0,10,0,1,0.32478,,,,,,feat_face,,,,,,,,,,,,,,,,,,,,,,,,,,DP,2,2,2020-11-16_09h33.10.896,configural_featural,2020.2.4,Linux x86_64,60,1920,1080,,0,0.19509888,0,Stimuli/f142.png,Stimuli/f15.png,,,,j,1,1.23986,,11,0,11,0,1,,,,,,,feat_face,,,,,,,,,,,,,,,,,,,,,,,,,,DP,2,2,2020-11-16_09h33.10.896,configural_featural,2020.2.4,Linux x86_64,60,1920,1080,,0,0.19509888,0,Stimuli/f15.png,Stimuli/f142.png,,,,j,1,2.207715,,12,0,12,0,1,,,,,,,feat_face,,,,,,,,,,,,,,,,,,,,,,,,,,DP,2,2,2020-11-16_09h33.10.896,configural_featural,2020.2.4,Linux x86_64,60,1920,1080,,0,0.19509888,1,Stimuli/f15.png,Stimuli/f15.png,,,,f,1,0.932235,,13,0,13,0,1,,,,,,,feat_face,,,,,,,,,,,,,,,,,,,,,,,,,,DP,2,2,2020-11-16_09h33.10.896,configural_featural,2020.2.4,Linux x86_64,60,1920,1080,,1,-0.19509888,0,Stimuli/f24.png,Stimuli/f131.png,,,,j,1,1.791055,space,14,0,14,0,1,0.192535,,,,,,feat_face,,,,,,,,,,,,,,,,,,,,,,,,,,DP,2,2,2020-11-16_09h33.10.896,configural_featural,2020.2.4,Linux x86_64,60,1920,1080,,0,0.19509888,1,Stimuli/f24.png,Stimuli/f24.png,,,,f,1,1.309525,,15,0,15,0,1,,,,,,,feat_face,,,,,,,,,,,,,,,,,,,,,,,,,,DP,2,2,2020-11-16_09h33.10.896,configural_featural,2020.2.4,Linux x86_64,60,1920,1080,,1,-0.19509888,0,Stimuli/f142.png,Stimuli/f24.png,,,,f,0,3.725295,space,16,0,16,0,1,1.09565,,,,,,feat_face,,,,,,,,,,,,,,,,,,,,,,,,,,DP,2,2,2020-11-16_09h33.10.896,configural_featural,2020.2.4,Linux x86_64,60,1920,1080,,1,-0.19509888,1,Stimuli/f24.png,Stimuli/f24.png,,,,j,0,1.999025,space,17,0,17,0,1,0.795305,,,,,,feat_face,,,,,,,,,,,,,,,,,,,,,,,,,,DP,2,2,2020-11-16_09h33.10.896,configural_featural,2020.2.4,Linux x86_64,60,1920,1080,,0,-0.19509888,1,Stimuli/f15.png,Stimuli/f15.png,,,,f,1,1.812195,,18,0,18,0,1,,,,,,,feat_face,,,,,,,,,,,,,,,,,,,,,,,,,,DP,2,2,2020-11-16_09h33.10.896,configural_featural,2020.2.4,Linux x86_64,60,1920,1080,,0,0.19509888,0,Stimuli/f142.png,Stimuli/f24.png,,,,j,1,1.34134,,19,0,19,0,1,,,,,,,feat_face,,,,,,,,,,,,,,,,,,,,,,,,,,DP,2,2,2020-11-16_09h33.10.896,configural_featural,2020.2.4,Linux x86_64,60,1920,1080,,0,-0.19509888,1,Stimuli/f142.png,Stimuli/f142.png,,,,j,0,1.294755,,20,0,20,0,1,,,,,,,feat_face,,,,,,,,,,,,,,,,,,,,,,,,,,DP,2,2,2020-11-16_09h33.10.896,configural_featural,2020.2.4,Linux x86_64,60,1920,1080,,0,-0.19509888,0,Stimuli/f15.png,Stimuli/f131.png,,,,j,1,1.109695,,21,0,21,0,1,,,,,,,feat_face,,,,,,,,,,,,,,,,,,,,,,,,,,DP,2,2,2020-11-16_09h33.10.896,configural_featural,2020.2.4,Linux x86_64,60,1920,1080,,0,0.19509888,1,Stimuli/f15.png,Stimuli/f15.png,,,,f,1,0.77355,,22,0,22,0,1,,,,,,,feat_face,,,,,,,,,,,,,,,,,,,,,,,,,,DP,2,2,2020-11-16_09h33.10.896,configural_featural,2020.2.4,Linux x86_64,60,1920,1080,,0,0.19509888,0,Stimuli/f24.png,Stimuli/f131.png,,,,f,0,0.7429,,23,0,23,0,1,,,,,,,feat_face,,,,,,,,,,,,,,,,,,,,,,,,,,DP,2,2,2020-11-16_09h33.10.896,configural_featural,2020.2.4,Linux x86_64,60,1920,1080,,0,-0.19509888,1,Stimuli/f131.png,Stimuli/f131.png,,,,f,1,0.898475,,24,0,24,0,1,,,,,,,feat_face,,,,,,,,,,,,,,,,,,,,,,,,,,DP,2,2,2020-11-16_09h33.10.896,configural_featural,2020.2.4,Linux x86_64,60,1920,1080,,0,0.19509888,1,Stimuli/f131.png,Stimuli/f131.png,,,,f,1,0.762675,,25,0,25,0,1,,,,,,,feat_face,,,,,,,,,,,,,,,,,,,,,,,,,,DP,2,2,2020-11-16_09h33.10.896,configural_featural,2020.2.4,Linux x86_64,60,1920,1080,,1,0.19509888,1,Stimuli/f142.png,Stimuli/f142.png,,,,j,0,0.57207,space,26,0,26,0,1,0.12708,,,,,,feat_face,,,,,,,,,,,,,,,,,,,,,,,,,,DP,2,2,2020-11-16_09h33.10.896,configural_featural,2020.2.4,Linux x86_64,60,1920,1080,,0,0.19509888,0,Stimuli/f131.png,Stimuli/f24.png,,,,j,1,2.04178,,27,0,27,0,1,,,,,,,feat_face,,,,,,,,,,,,,,,,,,,,,,,,,,DP,2,2,2020-11-16_09h33.10.896,configural_featural,2020.2.4,Linux x86_64,60,1920,1080,,0,0.19509888,0,Stimuli/f24.png,Stimuli/f15.png,,,,f,0,3.372735,,28,0,28,0,1,,,,,,,feat_face,,,,,,,,,,,,,,,,,,,,,,,,,,DP,2,2,2020-11-16_09h33.10.896,configural_featural,2020.2.4,Linux x86_64,60,1920,1080,,0,0.19509888,0,Stimuli/f15.png,Stimuli/f24.png,,,,j,1,0.93101,,29,0,29,0,1,,,,,,,feat_face,,,,,,,,,,,,,,,,,,,,,,,,,,DP,2,2,2020-11-16_09h33.10.896,configural_featural,2020.2.4,Linux x86_64,60,1920,1080,,0,-0.19509888,1,Stimuli/f24.png,Stimuli/f24.png,,,,f,1,0.890485,,30,0,30,0,1,,,,,,,feat_face,,,,,,,,,,,,,,,,,,,,,,,,,,DP,2,2,2020-11-16_09h33.10.896,configural_featural,2020.2.4,Linux x86_64,60,1920,1080,,0,0.19509888,1,Stimuli/f24.png,Stimuli/f24.png,,,,f,1,0.871975,,31,0,31,0,1,,,,,,,feat_face,,,,,,,,,,,,,,,,,,,,,,,,,,DP,2,2,2020-11-16_09h33.10.896,configural_featural,2020.2.4,Linux x86_64,60,1920,1080,,0,0.19509888,0,Stimuli/f131.png,Stimuli/f142.png,,,,j,1,0.541905,,32,0,32,0,1,,,,,,,feat_face,,,,,,,,,,,,,,,,,,,,,,,,,,DP,2,2,2020-11-16_09h33.10.896,configural_featural,2020.2.4,Linux x86_64,60,1920,1080,,0,-0.19509888,0,Stimuli/f15.png,Stimuli/f24.png,,,,j,1,1.26318,,33,0,33,0,1,,,,,,,feat_face,,,,,,,,,,,,,,,,,,,,,,,,,,DP,2,2,2020-11-16_09h33.10.896,configural_featural,2020.2.4,Linux x86_64,60,1920,1080,,0,0.19509888,0,Stimuli/f24.png,Stimuli/f142.png,,,,j,1,0.841475,,34,0,34,0,1,,,,,,,feat_face,,,,,,,,,,,,,,,,,,,,,,,,,,DP,2,2,2020-11-16_09h33.10.896,configural_featural,2020.2.4,Linux x86_64,60,1920,1080,,0,-0.19509888,1,Stimuli/f142.png,Stimuli/f142.png,,,,f,1,0.64302,,35,0,35,0,1,,,,,,,feat_face,,,,,,,,,,,,,,,,,,,,,,,,,,DP,2,2,2020-11-16_09h33.10.896,configural_featural,2020.2.4,Linux x86_64,60,1920,1080,,0,-0.19509888,0,Stimuli/f24.png,Stimuli/f142.png,,,,j,1,1.324985,,36,0,36,0,1,,,,,,,feat_face,,,,,,,,,,,,,,,,,,,,,,,,,,DP,2,2,2020-11-16_09h33.10.896,configural_featural,2020.2.4,Linux x86_64,60,1920,1080,,0,-0.19509888,1,Stimuli/f15.png,Stimuli/f15.png,,,,f,1,0.994475,,37,0,37,0,1,,,,,,,feat_face,,,,,,,,,,,,,,,,,,,,,,,,,,DP,2,2,2020-11-16_09h33.10.896,configural_featural,2020.2.4,Linux x86_64,60,1920,1080,,0,-0.19509888,0,Stimuli/f24.png,Stimuli/f15.png,,,,j,1,0.94324,,38,0,38,0,1,,,,,,,feat_face,,,,,,,,,,,,,,,,,,,,,,,,,,DP,2,2,2020-11-16_09h33.10.896,configural_featural,2020.2.4,Linux x86_64,60,1920,1080,,0,0.19509888,1,Stimuli/f15.png,Stimuli/f15.png,,,,j,0,1.72391,,39,0,39,0,1,,,,,,,feat_face,,,,,,,,,,,,,,,,,,,,,,,,,,DP,2,2,2020-11-16_09h33.10.896,configural_featural,2020.2.4,Linux x86_64,60,1920,1080,,0,0.19509888,0,Stimuli/f131.png,Stimuli/f15.png,,,,j,1,1.381035,,40,0,40,0,1,,,,,,,feat_face,,,,,,,,,,,,,,,,,,,,,,,,,,DP,2,2,2020-11-16_09h33.10.896,configural_featural,2020.2.4,Linux x86_64,60,1920,1080,,0,0.19509888,1,Stimuli/f24.png,Stimuli/f24.png,,,,f,1,2.99352,,41,0,41,0,1,,,,,,,feat_face,,,,,,,,,,,,,,,,,,,,,,,,,,DP,2,2,2020-11-16_09h33.10.896,configural_featural,2020.2.4,Linux x86_64,60,1920,1080,,0,0.19509888,1,Stimuli/f142.png,Stimuli/f142.png,,,,j,0,1.244155,,42,0,42,0,1,,,,,,,feat_face,,,,,,,,,,,,,,,,,,,,,,,,,,DP,2,2,2020-11-16_09h33.10.896,configural_featural,2020.2.4,Linux x86_64,60,1920,1080,,1,-0.19509888,1,Stimuli/f131.png,Stimuli/f131.png,,,,f,1,1.45598,space,43,0,43,0,1,0.29241,,,,,,feat_face,,,,,,,,,,,,,,,,,,,,,,,,,,DP,2,2,2020-11-16_09h33.10.896,configural_featural,2020.2.4,Linux x86_64,60,1920,1080,,0,-0.19509888,0,Stimuli/f15.png,Stimuli/f142.png,,,,j,1,1.1637,,44,0,44,0,1,,,,,,,feat_face,,,,,,,,,,,,,,,,,,,,,,,,,,DP,2,2,2020-11-16_09h33.10.896,configural_featural,2020.2.4,Linux x86_64,60,1920,1080,,0,-0.19509888,0,Stimuli/f142.png,Stimuli/f131.png,,,,j,1,3.272835,,45,0,45,0,1,,,,,,,feat_face,,,,,,,,,,,,,,,,,,,,,,,,,,DP,2,2,2020-11-16_09h33.10.896,configural_featural,2020.2.4,Linux x86_64,60,1920,1080,,0,0.19509888,0,Stimuli/f142.png,Stimuli/f131.png,,,,j,1,1.093045,,46,0,46,0,1,,,,,,,feat_face,,,,,,,,,,,,,,,,,,,,,,,,,,DP,2,2,2020-11-16_09h33.10.896,configural_featural,2020.2.4,Linux x86_64,60,1920,1080,,0,0.19509888,1,Stimuli/f131.png,Stimuli/f131.png,,,,j,0,1.257245,,47,0,47,0,1,,,,,,,feat_face,,,,,,,,,,,,,,,,,,,,,,,,,,DP,2,2,2020-11-16_09h33.10.896,configural_featural,2020.2.4,Linux x86_64,60,1920,1080,,,,,,,,,,,,,,,,,,,,0,0,0,0,1,feat_face,Designs/instructions_face_1234.png,,,,,,,,,,,,,,,,,,,,,,,,,DP,2,2,2020-11-16_09h33.10.896,configural_featural,2020.2.4,Linux x86_64,60,1920,1080,,0,-0.19509888,1,Stimuli/H5sim0.png,Stimuli/H5sim0.png,,,,f,1,1.49017,,0,0,0,0,1,,,,,,,feat_haus,,,,,,,,,,,,,,,,,,,,,,,,,,DP,2,2,2020-11-16_09h33.10.896,configural_featural,2020.2.4,Linux x86_64,60,1920,1080,,0,-0.19509888,0,Stimuli/H8sim0.png,Stimuli/H5sim0.png,,,,j,1,0.61529,,1,0,1,0,1,,,,,,,feat_haus,,,,,,,,,,,,,,,,,,,,,,,,,,DP,2,2,2020-11-16_09h33.10.896,configural_featural,2020.2.4,Linux x86_64,60,1920,1080,,0,-0.19509888,0,Stimuli/H7sim0.png,Stimuli/H5sim0.png,,,,f,0,1.523415,,2,0,2,0,1,,,,,,,feat_haus,,,,,,,,,,,,,,,,,,,,,,,,,,DP,2,2,2020-11-16_09h33.10.896,configural_featural,2020.2.4,Linux x86_64,60,1920,1080,,0,0.19509888,0,Stimuli/H5sim0.png,Stimuli/H6sim0.png,,,,f,0,0.86145,,3,0,3,0,1,,,,,,,feat_haus,,,,,,,,,,,,,,,,,,,,,,,,,,DP,2,2,2020-11-16_09h33.10.896,configural_featural,2020.2.4,Linux x86_64,60,1920,1080,,0,0.19509888,1,Stimuli/H5sim0.png,Stimuli/H5sim0.png,,,,j,0,1.778325,,4,0,4,0,1,,,,,,,feat_haus,,,,,,,,,,,,,,,,,,,,,,,,,,DP,2,2,2020-11-16_09h33.10.896,configural_featural,2020.2.4,Linux x86_64,60,1920,1080,,1,0.19509888,1,Stimuli/H7sim0.png,Stimuli/H7sim0.png,,,,j,0,2.495765,space,5,0,5,0,1,0.41288,,,,,,feat_haus,,,,,,,,,,,,,,,,,,,,,,,,,,DP,2,2,2020-11-16_09h33.10.896,configural_featural,2020.2.4,Linux x86_64,60,1920,1080,,0,-0.19509888,0,Stimuli/H6sim0.png,Stimuli/H8sim0.png,,,,f,0,1.228435,,6,0,6,0,1,,,,,,,feat_haus,,,,,,,,,,,,,,,,,,,,,,,,,,DP,2,2,2020-11-16_09h33.10.896,configural_featural,2020.2.4,Linux x86_64,60,1920,1080,,0,0.19509888,1,Stimuli/H6sim0.png,Stimuli/H6sim0.png,,,,f,1,0.97441,,7,0,7,0,1,,,,,,,feat_haus,,,,,,,,,,,,,,,,,,,,,,,,,,DP,2,2,2020-11-16_09h33.10.896,configural_featural,2020.2.4,Linux x86_64,60,1920,1080,,0,0.19509888,1,Stimuli/H8sim0.png,Stimuli/H8sim0.png,,,,f,1,0.92985,,8,0,8,0,1,,,,,,,feat_haus,,,,,,,,,,,,,,,,,,,,,,,,,,DP,2,2,2020-11-16_09h33.10.896,configural_featural,2020.2.4,Linux x86_64,60,1920,1080,,0,0.19509888,0,Stimuli/H8sim0.png,Stimuli/H6sim0.png,,,,j,1,1.540685,,9,0,9,0,1,,,,,,,feat_haus,,,,,,,,,,,,,,,,,,,,,,,,,,DP,2,2,2020-11-16_09h33.10.896,configural_featural,2020.2.4,Linux x86_64,60,1920,1080,,0,0.19509888,0,Stimuli/H5sim0.png,Stimuli/H8sim0.png,,,,j,1,0.92434,,10,0,10,0,1,,,,,,,feat_haus,,,,,,,,,,,,,,,,,,,,,,,,,,DP,2,2,2020-11-16_09h33.10.896,configural_featural,2020.2.4,Linux x86_64,60,1920,1080,,0,-0.19509888,1,Stimuli/H7sim0.png,Stimuli/H7sim0.png,,,,f,1,0.75713,,11,0,11,0,1,,,,,,,feat_haus,,,,,,,,,,,,,,,,,,,,,,,,,,DP,2,2,2020-11-16_09h33.10.896,configural_featural,2020.2.4,Linux x86_64,60,1920,1080,,0,0.19509888,1,Stimuli/H5sim0.png,Stimuli/H5sim0.png,,,,f,1,1.844985,,12,0,12,0,1,,,,,,,feat_haus,,,,,,,,,,,,,,,,,,,,,,,,,,DP,2,2,2020-11-16_09h33.10.896,configural_featural,2020.2.4,Linux x86_64,60,1920,1080,,0,0.19509888,0,Stimuli/H8sim0.png,Stimuli/H5sim0.png,,,,f,0,1.673735,,13,0,13,0,1,,,,,,,feat_haus,,,,,,,,,,,,,,,,,,,,,,,,,,DP,2,2,2020-11-16_09h33.10.896,configural_featural,2020.2.4,Linux x86_64,60,1920,1080,,0,-0.19509888,1,Stimuli/H6sim0.png,Stimuli/H6sim0.png,,,,f,1,0.805815,,14,0,14,0,1,,,,,,,feat_haus,,,,,,,,,,,,,,,,,,,,,,,,,,DP,2,2,2020-11-16_09h33.10.896,configural_featural,2020.2.4,Linux x86_64,60,1920,1080,,0,-0.19509888,1,Stimuli/H8sim0.png,Stimuli/H8sim0.png,,,,f,1,0.96509,,15,0,15,0,1,,,,,,,feat_haus,,,,,,,,,,,,,,,,,,,,,,,,,,DP,2,2,2020-11-16_09h33.10.896,configural_featural,2020.2.4,Linux x86_64,60,1920,1080,,0,0.19509888,0,Stimuli/H7sim0.png,Stimuli/H5sim0.png,,,,j,1,0.607425,,16,0,16,0,1,,,,,,,feat_haus,,,,,,,,,,,,,,,,,,,,,,,,,,DP,2,2,2020-11-16_09h33.10.896,configural_featural,2020.2.4,Linux x86_64,60,1920,1080,,0,0.19509888,0,Stimuli/H7sim0.png,Stimuli/H6sim0.png,,,,j,1,0.956715,,17,0,17,0,1,,,,,,,feat_haus,,,,,,,,,,,,,,,,,,,,,,,,,,DP,2,2,2020-11-16_09h33.10.896,configural_featural,2020.2.4,Linux x86_64,60,1920,1080,,0,-0.19509888,0,Stimuli/H6sim0.png,Stimuli/H7sim0.png,,,,j,1,0.72401,,18,0,18,0,1,,,,,,,feat_haus,,,,,,,,,,,,,,,,,,,,,,,,,,DP,2,2,2020-11-16_09h33.10.896,configural_featural,2020.2.4,Linux x86_64,60,1920,1080,,0,-0.19509888,1,Stimuli/H8sim0.png,Stimuli/H8sim0.png,,,,j,0,1.24124,,19,0,19,0,1,,,,,,,feat_haus,,,,,,,,,,,,,,,,,,,,,,,,,,DP,2,2,2020-11-16_09h33.10.896,configural_featural,2020.2.4,Linux x86_64,60,1920,1080,,1,-0.19509888,1,Stimuli/H7sim0.png,Stimuli/H7sim0.png,,,,j,0,4.18958,space,20,0,20,0,1,0.022715,,,,,,feat_haus,,,,,,,,,,,,,,,,,,,,,,,,,,DP,2,2,2020-11-16_09h33.10.896,configural_featural,2020.2.4,Linux x86_64,60,1920,1080,,0,0.19509888,1,Stimuli/H8sim0.png,Stimuli/H8sim0.png,,,,f,1,0.874625,,21,0,21,0,1,,,,,,,feat_haus,,,,,,,,,,,,,,,,,,,,,,,,,,DP,2,2,2020-11-16_09h33.10.896,configural_featural,2020.2.4,Linux x86_64,60,1920,1080,,1,0.19509888,0,Stimuli/H6sim0.png,Stimuli/H7sim0.png,,,,f,0,1.97286,space,22,0,22,0,1,0.44403,,,,,,feat_haus,,,,,,,,,,,,,,,,,,,,,,,,,,DP,2,2,2020-11-16_09h33.10.896,configural_featural,2020.2.4,Linux x86_64,60,1920,1080,,0,-0.19509888,0,Stimuli/H7sim0.png,Stimuli/H6sim0.png,,,,j,1,0.847935,,23,0,23,0,1,,,,,,,feat_haus,,,,,,,,,,,,,,,,,,,,,,,,,,DP,2,2,2020-11-16_09h33.10.896,configural_featural,2020.2.4,Linux x86_64,60,1920,1080,,0,0.19509888,1,Stimuli/H6sim0.png,Stimuli/H6sim0.png,,,,f,1,0.841175,,24,0,24,0,1,,,,,,,feat_haus,,,,,,,,,,,,,,,,,,,,,,,,,,DP,2,2,2020-11-16_09h33.10.896,configural_featural,2020.2.4,Linux x86_64,60,1920,1080,,1,0.19509888,0,Stimuli/H6sim0.png,Stimuli/H8sim0.png,,,,f,0,2.727925,space,25,0,25,0,1,1.19611,,,,,,feat_haus,,,,,,,,,,,,,,,,,,,,,,,,,,DP,2,2,2020-11-16_09h33.10.896,configural_featural,2020.2.4,Linux x86_64,60,1920,1080,,0,-0.19509888,0,Stimuli/H5sim0.png,Stimuli/H7sim0.png,,,,j,1,0.747965,,26,0,26,0,1,,,,,,,feat_haus,,,,,,,,,,,,,,,,,,,,,,,,,,DP,2,2,2020-11-16_09h33.10.896,configural_featural,2020.2.4,Linux x86_64,60,1920,1080,,0,-0.19509888,1,Stimuli/H6sim0.png,Stimuli/H6sim0.png,,,,f,1,1.014255,,27,0,27,0,1,,,,,,,feat_haus,,,,,,,,,,,,,,,,,,,,,,,,,,DP,2,2,2020-11-16_09h33.10.896,configural_featural,2020.2.4,Linux x86_64,60,1920,1080,,0,-0.19509888,0,Stimuli/H7sim0.png,Stimuli/H8sim0.png,,,,j,1,0.72921,,28,0,28,0,1,,,,,,,feat_haus,,,,,,,,,,,,,,,,,,,,,,,,,,DP,2,2,2020-11-16_09h33.10.896,configural_featural,2020.2.4,Linux x86_64,60,1920,1080,,0,-0.19509888,1,Stimuli/H5sim0.png,Stimuli/H5sim0.png,,,,f,1,1.19777,,29,0,29,0,1,,,,,,,feat_haus,,,,,,,,,,,,,,,,,,,,,,,,,,DP,2,2,2020-11-16_09h33.10.896,configural_featural,2020.2.4,Linux x86_64,60,1920,1080,,0,-0.19509888,0,Stimuli/H5sim0.png,Stimuli/H6sim0.png,,,,f,0,2.43116,,30,0,30,0,1,,,,,,,feat_haus,,,,,,,,,,,,,,,,,,,,,,,,,,DP,2,2,2020-11-16_09h33.10.896,configural_featural,2020.2.4,Linux x86_64,60,1920,1080,,0,-0.19509888,1,Stimuli/H6sim0.png,Stimuli/H6sim0.png,,,,f,1,0.814435,,31,0,31,0,1,,,,,,,feat_haus,,,,,,,,,,,,,,,,,,,,,,,,,,DP,2,2,2020-11-16_09h33.10.896,configural_featural,2020.2.4,Linux x86_64,60,1920,1080,,0,0.19509888,0,Stimuli/H8sim0.png,Stimuli/H7sim0.png,,,,j,1,0.78232,,32,0,32,0,1,,,,,,,feat_haus,,,,,,,,,,,,,,,,,,,,,,,,,,DP,2,2,2020-11-16_09h33.10.896,configural_featural,2020.2.4,Linux x86_64,60,1920,1080,,0,0.19509888,0,Stimuli/H7sim0.png,Stimuli/H8sim0.png,,,,j,1,0.796,,33,0,33,0,1,,,,,,,feat_haus,,,,,,,,,,,,,,,,,,,,,,,,,,DP,2,2,2020-11-16_09h33.10.896,configural_featural,2020.2.4,Linux x86_64,60,1920,1080,,0,0.19509888,1,Stimuli/H7sim0.png,Stimuli/H7sim0.png,,,,f,1,1.191915,,34,0,34,0,1,,,,,,,feat_haus,,,,,,,,,,,,,,,,,,,,,,,,,,DP,2,2,2020-11-16_09h33.10.896,configural_featural,2020.2.4,Linux x86_64,60,1920,1080,,0,0.19509888,1,Stimuli/H5sim0.png,Stimuli/H5sim0.png,,,,j,0,3.510075,,35,0,35,0,1,,,,,,,feat_haus,,,,,,,,,,,,,,,,,,,,,,,,,,DP,2,2,2020-11-16_09h33.10.896,configural_featural,2020.2.4,Linux x86_64,60,1920,1080,,0,-0.19509888,1,Stimuli/H8sim0.png,Stimuli/H8sim0.png,,,,f,1,1.013745,,36,0,36,0,1,,,,,,,feat_haus,,,,,,,,,,,,,,,,,,,,,,,,,,DP,2,2,2020-11-16_09h33.10.896,configural_featural,2020.2.4,Linux x86_64,60,1920,1080,,0,0.19509888,1,Stimuli/H7sim0.png,Stimuli/H7sim0.png,,,,f,1,0.91398,,37,0,37,0,1,,,,,,,feat_haus,,,,,,,,,,,,,,,,,,,,,,,,,,DP,2,2,2020-11-16_09h33.10.896,configural_featural,2020.2.4,Linux x86_64,60,1920,1080,,1,-0.19509888,0,Stimuli/H6sim0.png,Stimuli/H5sim0.png,,,,f,0,2.02325,space,38,0,38,0,1,0.82353,,,,,,feat_haus,,,,,,,,,,,,,,,,,,,,,,,,,,DP,2,2,2020-11-16_09h33.10.896,configural_featural,2020.2.4,Linux x86_64,60,1920,1080,,0,0.19509888,0,Stimuli/H5sim0.png,Stimuli/H7sim0.png,,,,j,1,1.28094,,39,0,39,0,1,,,,,,,feat_haus,,,,,,,,,,,,,,,,,,,,,,,,,,DP,2,2,2020-11-16_09h33.10.896,configural_featural,2020.2.4,Linux x86_64,60,1920,1080,,0,-0.19509888,0,Stimuli/H5sim0.png,Stimuli/H8sim0.png,,,,j,1,0.643135,,40,0,40,0,1,,,,,,,feat_haus,,,,,,,,,,,,,,,,,,,,,,,,,,DP,2,2,2020-11-16_09h33.10.896,configural_featural,2020.2.4,Linux x86_64,60,1920,1080,,0,0.19509888,1,Stimuli/H8sim0.png,Stimuli/H8sim0.png,,,,f,1,2.34723,,41,0,41,0,1,,,,,,,feat_haus,,,,,,,,,,,,,,,,,,,,,,,,,,DP,2,2,2020-11-16_09h33.10.896,configural_featural,2020.2.4,Linux x86_64,60,1920,1080,,0,0.19509888,0,Stimuli/H6sim0.png,Stimuli/H5sim0.png,,,,j,1,1.01219,,42,0,42,0,1,,,,,,,feat_haus,,,,,,,,,,,,,,,,,,,,,,,,,,DP,2,2,2020-11-16_09h33.10.896,configural_featural,2020.2.4,Linux x86_64,60,1920,1080,,0,-0.19509888,1,Stimuli/H7sim0.png,Stimuli/H7sim0.png,,,,f,1,0.790515,,43,0,43,0,1,,,,,,,feat_haus,,,,,,,,,,,,,,,,,,,,,,,,,,DP,2,2,2020-11-16_09h33.10.896,configural_featural,2020.2.4,Linux x86_64,60,1920,1080,,0,-0.19509888,1,Stimuli/H5sim0.png,Stimuli/H5sim0.png,,,,f,1,0.844225,,44,0,44,0,1,,,,,,,feat_haus,,,,,,,,,,,,,,,,,,,,,,,,,,DP,2,2,2020-11-16_09h33.10.896,configural_featural,2020.2.4,Linux x86_64,60,1920,1080,,1,-0.19509888,0,Stimuli/H8sim0.png,Stimuli/H7sim0.png,,,,f,0,1.744135,space,45,0,45,0,1,0.593575,,,,,,feat_haus,,,,,,,,,,,,,,,,,,,,,,,,,,DP,2,2,2020-11-16_09h33.10.896,configural_featural,2020.2.4,Linux x86_64,60,1920,1080,,0,-0.19509888,0,Stimuli/H8sim0.png,Stimuli/H6sim0.png,,,,f,0,3.374035,,46,0,46,0,1,,,,,,,feat_haus,,,,,,,,,,,,,,,,,,,,,,,,,,DP,2,2,2020-11-16_09h33.10.896,configural_featural,2020.2.4,Linux x86_64,60,1920,1080,,0,0.19509888,1,Stimuli/H6sim0.png,Stimuli/H6sim0.png,,,,f,1,0.89163,,47,0,47,0,1,,,,,,,feat_haus,,,,,,,,,,,,,,,,,,,,,,,,,,DP,2,2,2020-11-16_09h33.10.896,configural_featural,2020.2.4,Linux x86_64,60,1920,1080,,,,,,,,,,,,,,,,,,,,0,1,1,1,1,feat_haus,Designs/instructions_haus_1234.png,,,,,,,,,,,,,,,,,,,,,,,,,DP,2,2,2020-11-16_09h33.10.896,configural_featural,2020.2.4,Linux x86_64,60,1920,1080,,0,0.19509888,1,Stimuli/eumu.png,Stimuli/eumu.png,,,,j,0,0.89091,,0,0,0,0,1,,,,,,,conf_face,,,,,,,,,,,,,,,,,,,,,,,,,,DP,2,2,2020-11-16_09h33.10.896,configural_featural,2020.2.4,Linux x86_64,60,1920,1080,,0,-0.19509888,0,Stimuli/eomu.png,Stimuli/eimd.png,,,,f,0,1.229605,,1,0,1,0,1,,,,,,,conf_face,,,,,,,,,,,,,,,,,,,,,,,,,,DP,2,2,2020-11-16_09h33.10.896,configural_featural,2020.2.4,Linux x86_64,60,1920,1080,,0,-0.19509888,1,Stimuli/eimd.png,Stimuli/eimd.png,,,,f,1,2.992665,,2,0,2,0,1,,,,,,,conf_face,,,,,,,,,,,,,,,,,,,,,,,,,,DP,2,2,2020-11-16_09h33.10.896,configural_featural,2020.2.4,Linux x86_64,60,1920,1080,,0,-0.19509888,1,Stimuli/eumu.png,Stimuli/eumu.png,,,,f,1,0.481925,,3,0,3,0,1,,,,,,,conf_face,,,,,,,,,,,,,,,,,,,,,,,,,,DP,2,2,2020-11-16_09h33.10.896,configural_featural,2020.2.4,Linux x86_64,60,1920,1080,,0,0.19509888,0,Stimuli/edmd.png,Stimuli/eomu.png,,,,j,1,0.458155,,4,0,4,0,1,,,,,,,conf_face,,,,,,,,,,,,,,,,,,,,,,,,,,DP,2,2,2020-11-16_09h33.10.896,configural_featural,2020.2.4,Linux x86_64,60,1920,1080,,0,-0.19509888,0,Stimuli/eimd.png,Stimuli/eomu.png,,,,f,0,1.428035,,5,0,5,0,1,,,,,,,conf_face,,,,,,,,,,,,,,,,,,,,,,,,,,DP,2,2,2020-11-16_09h33.10.896,configural_featural,2020.2.4,Linux x86_64,60,1920,1080,,0,-0.19509888,1,Stimuli/edmd.png,Stimuli/edmd.png,,,,j,0,0.67872,,6,0,6,0,1,,,,,,,conf_face,,,,,,,,,,,,,,,,,,,,,,,,,,DP,2,2,2020-11-16_09h33.10.896,configural_featural,2020.2.4,Linux x86_64,60,1920,1080,,1,0.19509888,0,Stimuli/edmd.png,Stimuli/eimd.png,,,,f,0,2.65633,space,7,0,7,0,1,0.657305,,,,,,conf_face,,,,,,,,,,,,,,,,,,,,,,,,,,DP,2,2,2020-11-16_09h33.10.896,configural_featural,2020.2.4,Linux x86_64,60,1920,1080,,0,-0.19509888,1,Stimuli/eomu.png,Stimuli/eomu.png,,,,f,1,1.159125,,8,0,8,0,1,,,,,,,conf_face,,,,,,,,,,,,,,,,,,,,,,,,,,DP,2,2,2020-11-16_09h33.10.896,configural_featural,2020.2.4,Linux x86_64,60,1920,1080,,0,0.19509888,0,Stimuli/eimd.png,Stimuli/edmd.png,,,,j,1,0.92875,,9,0,9,0,1,,,,,,,conf_face,,,,,,,,,,,,,,,,,,,,,,,,,,DP,2,2,2020-11-16_09h33.10.896,configural_featural,2020.2.4,Linux x86_64,60,1920,1080,,1,-0.19509888,0,Stimuli/eimd.png,Stimuli/eumu.png,,,,f,0,1.544745,space,10,0,10,0,1,0.54528,,,,,,conf_face,,,,,,,,,,,,,,,,,,,,,,,,,,DP,2,2,2020-11-16_09h33.10.896,configural_featural,2020.2.4,Linux x86_64,60,1920,1080,,0,0.19509888,1,Stimuli/edmd.png,Stimuli/edmd.png,,,,f,1,1.147015,,11,0,11,0,1,,,,,,,conf_face,,,,,,,,,,,,,,,,,,,,,,,,,,DP,2,2,2020-11-16_09h33.10.896,configural_featural,2020.2.4,Linux x86_64,60,1920,1080,,1,-0.19509888,0,Stimuli/eimd.png,Stimuli/edmd.png,,,,f,0,2.207035,space,12,0,12,0,1,0.70773,,,,,,conf_face,,,,,,,,,,,,,,,,,,,,,,,,,,DP,2,2,2020-11-16_09h33.10.896,configural_featural,2020.2.4,Linux x86_64,60,1920,1080,,0,-0.19509888,0,Stimuli/edmd.png,Stimuli/eumu.png,,,,f,0,1.79172,,13,0,13,0,1,,,,,,,conf_face,,,,,,,,,,,,,,,,,,,,,,,,,,DP,2,2,2020-11-16_09h33.10.896,configural_featural,2020.2.4,Linux x86_64,60,1920,1080,,0,-0.19509888,1,Stimuli/eimd.png,Stimuli/eimd.png,,,,j,0,0.74353,,14,0,14,0,1,,,,,,,conf_face,,,,,,,,,,,,,,,,,,,,,,,,,,DP,2,2,2020-11-16_09h33.10.896,configural_featural,2020.2.4,Linux x86_64,60,1920,1080,,0,-0.19509888,1,Stimuli/eumu.png,Stimuli/eumu.png,,,,f,1,0.84766,,15,0,15,0,1,,,,,,,conf_face,,,,,,,,,,,,,,,,,,,,,,,,,,DP,2,2,2020-11-16_09h33.10.896,configural_featural,2020.2.4,Linux x86_64,60,1920,1080,,0,0.19509888,0,Stimuli/eomu.png,Stimuli/edmd.png,,,,j,1,0.978275,,16,0,16,0,1,,,,,,,conf_face,,,,,,,,,,,,,,,,,,,,,,,,,,DP,2,2,2020-11-16_09h33.10.896,configural_featural,2020.2.4,Linux x86_64,60,1920,1080,,0,-0.19509888,1,Stimuli/edmd.png,Stimuli/edmd.png,,,,j,0,1.029865,,17,0,17,0,1,,,,,,,conf_face,,,,,,,,,,,,,,,,,,,,,,,,,,DP,2,2,2020-11-16_09h33.10.896,configural_featural,2020.2.4,Linux x86_64,60,1920,1080,,0,-0.19509888,0,Stimuli/eumu.png,Stimuli/edmd.png,,,,f,0,0.69521,,18,0,18,0,1,,,,,,,conf_face,,,,,,,,,,,,,,,,,,,,,,,,,,DP,2,2,2020-11-16_09h33.10.896,configural_featural,2020.2.4,Linux x86_64,60,1920,1080,,0,0.19509888,1,Stimuli/eimd.png,Stimuli/eimd.png,,,,f,1,0.82922,,19,0,19,0,1,,,,,,,conf_face,,,,,,,,,,,,,,,,,,,,,,,,,,DP,2,2,2020-11-16_09h33.10.896,configural_featural,2020.2.4,Linux x86_64,60,1920,1080,,0,0.19509888,0,Stimuli/eumu.png,Stimuli/edmd.png,,,,j,1,0.57848,,20,0,20,0,1,,,,,,,conf_face,,,,,,,,,,,,,,,,,,,,,,,,,,DP,2,2,2020-11-16_09h33.10.896,configural_featural,2020.2.4,Linux x86_64,60,1920,1080,,0,0.19509888,1,Stimuli/eomu.png,Stimuli/eomu.png,,,,f,1,4.181545,,21,0,21,0,1,,,,,,,conf_face,,,,,,,,,,,,,,,,,,,,,,,,,,DP,2,2,2020-11-16_09h33.10.896,configural_featural,2020.2.4,Linux x86_64,60,1920,1080,,0,0.19509888,1,Stimuli/eimd.png,Stimuli/eimd.png,,,,j,0,0.59039,,22,0,22,0,1,,,,,,,conf_face,,,,,,,,,,,,,,,,,,,,,,,,,,DP,2,2,2020-11-16_09h33.10.896,configural_featural,2020.2.4,Linux x86_64,60,1920,1080,,1,0.19509888,0,Stimuli/eimd.png,Stimuli/eomu.png,,,,f,0,2.007915,space,23,0,23,0,1,0.31535,,,,,,conf_face,,,,,,,,,,,,,,,,,,,,,,,,,,DP,2,2,2020-11-16_09h33.10.896,configural_featural,2020.2.4,Linux x86_64,60,1920,1080,,0,0.19509888,0,Stimuli/eomu.png,Stimuli/eumu.png,,,,j,1,0.744215,,24,0,24,0,1,,,,,,,conf_face,,,,,,,,,,,,,,,,,,,,,,,,,,DP,2,2,2020-11-16_09h33.10.896,configural_featural,2020.2.4,Linux x86_64,60,1920,1080,,0,-0.19509888,1,Stimuli/eomu.png,Stimuli/eomu.png,,,,f,1,1.37604,,25,0,25,0,1,,,,,,,conf_face,,,,,,,,,,,,,,,,,,,,,,,,,,DP,2,2,2020-11-16_09h33.10.896,configural_featural,2020.2.4,Linux x86_64,60,1920,1080,,0,-0.19509888,1,Stimuli/eomu.png,Stimuli/eomu.png,,,,f,1,1.17691,,26,0,26,0,1,,,,,,,conf_face,,,,,,,,,,,,,,,,,,,,,,,,,,DP,2,2,2020-11-16_09h33.10.896,configural_featural,2020.2.4,Linux x86_64,60,1920,1080,,0,0.19509888,1,Stimuli/eomu.png,Stimuli/eomu.png,,,,j,0,0.659645,,27,0,27,0,1,,,,,,,conf_face,,,,,,,,,,,,,,,,,,,,,,,,,,DP,2,2,2020-11-16_09h33.10.896,configural_featural,2020.2.4,Linux x86_64,60,1920,1080,,1,-0.19509888,0,Stimuli/eomu.png,Stimuli/eumu.png,,,,f,0,1.440845,space,28,0,28,0,1,0.41283,,,,,,conf_face,,,,,,,,,,,,,,,,,,,,,,,,,,DP,2,2,2020-11-16_09h33.10.896,configural_featural,2020.2.4,Linux x86_64,60,1920,1080,,0,0.19509888,0,Stimuli/edmd.png,Stimuli/eumu.png,,,,j,1,0.758095,,29,0,29,0,1,,,,,,,conf_face,,,,,,,,,,,,,,,,,,,,,,,,,,DP,2,2,2020-11-16_09h33.10.896,configural_featural,2020.2.4,Linux x86_64,60,1920,1080,,0,0.19509888,1,Stimuli/edmd.png,Stimuli/edmd.png,,,,f,1,4.189185,,30,0,30,0,1,,,,,,,conf_face,,,,,,,,,,,,,,,,,,,,,,,,,,DP,2,2,2020-11-16_09h33.10.896,configural_featural,2020.2.4,Linux x86_64,60,1920,1080,,0,0.19509888,1,Stimuli/eumu.png,Stimuli/eumu.png,,,,f,1,1.159015,,31,0,31,0,1,,,,,,,conf_face,,,,,,,,,,,,,,,,,,,,,,,,,,DP,2,2,2020-11-16_09h33.10.896,configural_featural,2020.2.4,Linux x86_64,60,1920,1080,,0,-0.19509888,0,Stimuli/eumu.png,Stimuli/eomu.png,,,,f,0,1.0126,,32,0,32,0,1,,,,,,,conf_face,,,,,,,,,,,,,,,,,,,,,,,,,,DP,2,2,2020-11-16_09h33.10.896,configural_featural,2020.2.4,Linux x86_64,60,1920,1080,,0,0.19509888,0,Stimuli/eomu.png,Stimuli/eimd.png,,,,j,1,0.743875,,33,0,33,0,1,,,,,,,conf_face,,,,,,,,,,,,,,,,,,,,,,,,,,DP,2,2,2020-11-16_09h33.10.896,configural_featural,2020.2.4,Linux x86_64,60,1920,1080,,0,-0.19509888,0,Stimuli/eumu.png,Stimuli/eimd.png,,,,f,0,1.039895,,34,0,34,0,1,,,,,,,conf_face,,,,,,,,,,,,,,,,,,,,,,,,,,DP,2,2,2020-11-16_09h33.10.896,configural_featural,2020.2.4,Linux x86_64,60,1920,1080,,0,0.19509888,1,Stimuli/eimd.png,Stimuli/eimd.png,,,,j,0,0.74377,,35,0,35,0,1,,,,,,,conf_face,,,,,,,,,,,,,,,,,,,,,,,,,,DP,2,2,2020-11-16_09h33.10.896,configural_featural,2020.2.4,Linux x86_64,60,1920,1080,,0,0.19509888,0,Stimuli/eumu.png,Stimuli/eomu.png,,,,f,0,0.42464,,36,0,36,0,1,,,,,,,conf_face,,,,,,,,,,,,,,,,,,,,,,,,,,DP,2,2,2020-11-16_09h33.10.896,configural_featural,2020.2.4,Linux x86_64,60,1920,1080,,0,0.19509888,1,Stimuli/eumu.png,Stimuli/eumu.png,,,,f,1,0.6616,,37,0,37,0,1,,,,,,,conf_face,,,,,,,,,,,,,,,,,,,,,,,,,,DP,2,2,2020-11-16_09h33.10.896,configural_featural,2020.2.4,Linux x86_64,60,1920,1080,,0,-0.19509888,0,Stimuli/edmd.png,Stimuli/eimd.png,,,,f,0,0.774095,,38,0,38,0,1,,,,,,,conf_face,,,,,,,,,,,,,,,,,,,,,,,,,,DP,2,2,2020-11-16_09h33.10.896,configural_featural,2020.2.4,Linux x86_64,60,1920,1080,,1,0.19509888,0,Stimuli/eimd.png,Stimuli/eumu.png,,,,j,1,2.07496,space,39,0,39,0,1,0.341485,,,,,,conf_face,,,,,,,,,,,,,,,,,,,,,,,,,,DP,2,2,2020-11-16_09h33.10.896,configural_featural,2020.2.4,Linux x86_64,60,1920,1080,,0,0.19509888,1,Stimuli/eomu.png,Stimuli/eomu.png,,,,f,1,2.357245,,40,0,40,0,1,,,,,,,conf_face,,,,,,,,,,,,,,,,,,,,,,,,,,DP,2,2,2020-11-16_09h33.10.896,configural_featural,2020.2.4,Linux x86_64,60,1920,1080,,0,-0.19509888,1,Stimuli/eumu.png,Stimuli/eumu.png,,,,f,1,0.940965,,41,0,41,0,1,,,,,,,conf_face,,,,,,,,,,,,,,,,,,,,,,,,,,DP,2,2,2020-11-16_09h33.10.896,configural_featural,2020.2.4,Linux x86_64,60,1920,1080,,0,-0.19509888,0,Stimuli/edmd.png,Stimuli/eomu.png,,,,j,1,0.57698,,42,0,42,0,1,,,,,,,conf_face,,,,,,,,,,,,,,,,,,,,,,,,,,DP,2,2,2020-11-16_09h33.10.896,configural_featural,2020.2.4,Linux x86_64,60,1920,1080,,0,-0.19509888,0,Stimuli/eomu.png,Stimuli/edmd.png,,,,j,1,1.198695,,43,0,43,0,1,,,,,,,conf_face,,,,,,,,,,,,,,,,,,,,,,,,,,DP,2,2,2020-11-16_09h33.10.896,configural_featural,2020.2.4,Linux x86_64,60,1920,1080,,0,-0.19509888,1,Stimuli/edmd.png,Stimuli/edmd.png,,,,f,1,2.773715,,44,0,44,0,1,,,,,,,conf_face,,,,,,,,,,,,,,,,,,,,,,,,,,DP,2,2,2020-11-16_09h33.10.896,configural_featural,2020.2.4,Linux x86_64,60,1920,1080,,0,0.19509888,1,Stimuli/edmd.png,Stimuli/edmd.png,,,,j,0,0.67278,,45,0,45,0,1,,,,,,,conf_face,,,,,,,,,,,,,,,,,,,,,,,,,,DP,2,2,2020-11-16_09h33.10.896,configural_featural,2020.2.4,Linux x86_64,60,1920,1080,,0,-0.19509888,1,Stimuli/eimd.png,Stimuli/eimd.png,,,,j,0,1.424435,,46,0,46,0,1,,,,,,,conf_face,,,,,,,,,,,,,,,,,,,,,,,,,,DP,2,2,2020-11-16_09h33.10.896,configural_featural,2020.2.4,Linux x86_64,60,1920,1080,,0,0.19509888,0,Stimuli/eumu.png,Stimuli/eimd.png,,,,f,0,1.012235,,47,0,47,0,1,,,,,,,conf_face,,,,,,,,,,,,,,,,,,,,,,,,,,DP,2,2,2020-11-16_09h33.10.896,configural_featural,2020.2.4,Linux x86_64,60,1920,1080,,,,,,,,,,,,,,,,,,,,0,2,2,2,1,conf_face,Designs/instructions_face_1234.png,,,,,,,,,,,,,,,,,,,,,,,,,DP,2,2,2020-11-16_09h33.10.896,configural_featural,2020.2.4,Linux x86_64,60,1920,1080,,0,0.19509888,0,Stimuli/H-8sim0.png,Stimuli/H-8sim3.png,,,,f,0,1.07383,,0,0,0,0,1,,,,,,,conf_haus,,,,,,,,,,,,,,,,,,,,,,,,,,DP,2,2,2020-11-16_09h33.10.896,configural_featural,2020.2.4,Linux x86_64,60,1920,1080,,0,0.19509888,1,Stimuli/H-8sim2.png,Stimuli/H-8sim2.png,,,,f,1,0.54207,,1,0,1,0,1,,,,,,,conf_haus,,,,,,,,,,,,,,,,,,,,,,,,,,DP,2,2,2020-11-16_09h33.10.896,configural_featural,2020.2.4,Linux x86_64,60,1920,1080,,0,0.19509888,0,Stimuli/H-8sim1.png,Stimuli/H-8sim3.png,,,,j,1,1.00865,,2,0,2,0,1,,,,,,,conf_haus,,,,,,,,,,,,,,,,,,,,,,,,,,DP,2,2,2020-11-16_09h33.10.896,configural_featural,2020.2.4,Linux x86_64,60,1920,1080,,1,0.19509888,0,Stimuli/H-8sim1.png,Stimuli/H-8sim0.png,,,,f,0,1.043715,,3,0,3,0,1,,,,,,,conf_haus,,,,,,,,,,,,,,,,,,,,,,,,,,DP,2,2,2020-11-16_09h33.10.896,configural_featural,2020.2.4,Linux x86_64,60,1920,1080,,0,0.19509888,1,Stimuli/H-8sim3.png,Stimuli/H-8sim3.png,,,,f,1,4.39287,,4,0,4,0,1,,,,,,,conf_haus,,,,,,,,,,,,,,,,,,,,,,,,,,DP,2,2,2020-11-16_09h33.10.896,configural_featural,2020.2.4,Linux x86_64,60,1920,1080,,0,-0.19509888,1,Stimuli/H-8sim2.png,Stimuli/H-8sim2.png,,,,f,1,0.65803,,5,0,5,0,1,,,,,,,conf_haus,,,,,,,,,,,,,,,,,,,,,,,,,,DP,2,2,2020-11-16_09h33.10.896,configural_featural,2020.2.4,Linux x86_64,60,1920,1080,,0,-0.19509888,0,Stimuli/H-8sim3.png,Stimuli/H-8sim2.png,,,,j,1,0.709975,,6,0,6,0,1,,,,,,,conf_haus,,,,,,,,,,,,,,,,,,,,,,,,,,DP,2,2,2020-11-16_09h33.10.896,configural_featural,2020.2.4,Linux x86_64,60,1920,1080,,0,0.19509888,1,Stimuli/H-8sim1.png,Stimuli/H-8sim1.png,,,,j,0,0.99009,,7,0,7,0,1,,,,,,,conf_haus,,,,,,,,,,,,,,,,,,,,,,,,,,DP,2,2,2020-11-16_09h33.10.896,configural_featural,2020.2.4,Linux x86_64,60,1920,1080,,0,-0.19509888,1,Stimuli/H-8sim1.png,Stimuli/H-8sim1.png,,,,f,1,0.87203,,8,0,8,0,1,,,,,,,conf_haus,,,,,,,,,,,,,,,,,,,,,,,,,,DP,2,2,2020-11-16_09h33.10.896,configural_featural,2020.2.4,Linux x86_64,60,1920,1080,,0,-0.19509888,0,Stimuli/H-8sim0.png,Stimuli/H-8sim3.png,,,,f,0,0.555315,,9,0,9,0,1,,,,,,,conf_haus,,,,,,,,,,,,,,,,,,,,,,,,,,DP,2,2,2020-11-16_09h33.10.896,configural_featural,2020.2.4,Linux x86_64,60,1920,1080,,0,0.19509888,1,Stimuli/H-8sim0.png,Stimuli/H-8sim0.png,,,,f,1,1.343555,,10,0,10,0,1,,,,,,,conf_haus,,,,,,,,,,,,,,,,,,,,,,,,,,DP,2,2,2020-11-16_09h33.10.896,configural_featural,2020.2.4,Linux x86_64,60,1920,1080,,0,0.19509888,0,Stimuli/H-8sim0.png,Stimuli/H-8sim2.png,,,,f,0,2.040955,,11,0,11,0,1,,,,,,,conf_haus,,,,,,,,,,,,,,,,,,,,,,,,,,DP,2,2,2020-11-16_09h33.10.896,configural_featural,2020.2.4,Linux x86_64,60,1920,1080,,1,-0.19509888,0,Stimuli/H-8sim0.png,Stimuli/H-8sim2.png,,,,j,1,1.507265,space,12,0,12,0,1,0.61205,,,,,,conf_haus,,,,,,,,,,,,,,,,,,,,,,,,,,DP,2,2,2020-11-16_09h33.10.896,configural_featural,2020.2.4,Linux x86_64,60,1920,1080,,0,-0.19509888,1,Stimuli/H-8sim3.png,Stimuli/H-8sim3.png,,,,f,1,0.913815,,13,0,13,0,1,,,,,,,conf_haus,,,,,,,,,,,,,,,,,,,,,,,,,,DP,2,2,2020-11-16_09h33.10.896,configural_featural,2020.2.4,Linux x86_64,60,1920,1080,,0,0.19509888,0,Stimuli/H-8sim2.png,Stimuli/H-8sim1.png,,,,j,1,0.77472,,14,0,14,0,1,,,,,,,conf_haus,,,,,,,,,,,,,,,,,,,,,,,,,,DP,2,2,2020-11-16_09h33.10.896,configural_featural,2020.2.4,Linux x86_64,60,1920,1080,,0,-0.19509888,0,Stimuli/H-8sim0.png,Stimuli/H-8sim1.png,,,,f,0,1.26146,,15,0,15,0,1,,,,,,,conf_haus,,,,,,,,,,,,,,,,,,,,,,,,,,DP,2,2,2020-11-16_09h33.10.896,configural_featural,2020.2.4,Linux x86_64,60,1920,1080,,0,-0.19509888,1,Stimuli/H-8sim0.png,Stimuli/H-8sim0.png,,,,f,1,0.82792,,16,0,16,0,1,,,,,,,conf_haus,,,,,,,,,,,,,,,,,,,,,,,,,,DP,2,2,2020-11-16_09h33.10.896,configural_featural,2020.2.4,Linux x86_64,60,1920,1080,,0,0.19509888,1,Stimuli/H-8sim0.png,Stimuli/H-8sim0.png,,,,j,0,2.46023,,17,0,17,0,1,,,,,,,conf_haus,,,,,,,,,,,,,,,,,,,,,,,,,,DP,2,2,2020-11-16_09h33.10.896,configural_featural,2020.2.4,Linux x86_64,60,1920,1080,,0,-0.19509888,1,Stimuli/H-8sim2.png,Stimuli/H-8sim2.png,,,,f,1,0.96119,,18,0,18,0,1,,,,,,,conf_haus,,,,,,,,,,,,,,,,,,,,,,,,,,DP,2,2,2020-11-16_09h33.10.896,configural_featural,2020.2.4,Linux x86_64,60,1920,1080,,0,-0.19509888,1,Stimuli/H-8sim3.png,Stimuli/H-8sim3.png,,,,f,1,0.905885,,19,0,19,0,1,,,,,,,conf_haus,,,,,,,,,,,,,,,,,,,,,,,,,,DP,2,2,2020-11-16_09h33.10.896,configural_featural,2020.2.4,Linux x86_64,60,1920,1080,,0,0.19509888,0,Stimuli/H-8sim3.png,Stimuli/H-8sim0.png,,,,f,0,0.761305,,20,0,20,0,1,,,,,,,conf_haus,,,,,,,,,,,,,,,,,,,,,,,,,,DP,2,2,2020-11-16_09h33.10.896,configural_featural,2020.2.4,Linux x86_64,60,1920,1080,,0,0.19509888,0,Stimuli/H-8sim2.png,Stimuli/H-8sim3.png,,,,j,1,1.642305,,21,0,21,0,1,,,,,,,conf_haus,,,,,,,,,,,,,,,,,,,,,,,,,,DP,2,2,2020-11-16_09h33.10.896,configural_featural,2020.2.4,Linux x86_64,60,1920,1080,,1,0.19509888,0,Stimuli/H-8sim0.png,Stimuli/H-8sim1.png,,,,f,0,1.426195,space,22,0,22,0,1,0.18892,,,,,,conf_haus,,,,,,,,,,,,,,,,,,,,,,,,,,DP,2,2,2020-11-16_09h33.10.896,configural_featural,2020.2.4,Linux x86_64,60,1920,1080,,0,0.19509888,1,Stimuli/H-8sim3.png,Stimuli/H-8sim3.png,,,,f,1,1.142915,,23,0,23,0,1,,,,,,,conf_haus,,,,,,,,,,,,,,,,,,,,,,,,,,DP,2,2,2020-11-16_09h33.10.896,configural_featural,2020.2.4,Linux x86_64,60,1920,1080,,0,0.19509888,1,Stimuli/H-8sim1.png,Stimuli/H-8sim1.png,,,,j,0,0.69239,,24,0,24,0,1,,,,,,,conf_haus,,,,,,,,,,,,,,,,,,,,,,,,,,DP,2,2,2020-11-16_09h33.10.896,configural_featural,2020.2.4,Linux x86_64,60,1920,1080,,0,-0.19509888,1,Stimuli/H-8sim1.png,Stimuli/H-8sim1.png,,,,f,1,2.14347,,25,0,25,0,1,,,,,,,conf_haus,,,,,,,,,,,,,,,,,,,,,,,,,,DP,2,2,2020-11-16_09h33.10.896,configural_featural,2020.2.4,Linux x86_64,60,1920,1080,,0,0.19509888,0,Stimuli/H-8sim3.png,Stimuli/H-8sim1.png,,,,j,1,0.9603,,26,0,26,0,1,,,,,,,conf_haus,,,,,,,,,,,,,,,,,,,,,,,,,,DP,2,2,2020-11-16_09h33.10.896,configural_featural,2020.2.4,Linux x86_64,60,1920,1080,,0,-0.19509888,1,Stimuli/H-8sim0.png,Stimuli/H-8sim0.png,,,,f,1,1.09635,,27,0,27,0,1,,,,,,,conf_haus,,,,,,,,,,,,,,,,,,,,,,,,,,DP,2,2,2020-11-16_09h33.10.896,configural_featural,2020.2.4,Linux x86_64,60,1920,1080,,0,-0.19509888,0,Stimuli/H-8sim1.png,Stimuli/H-8sim2.png,,,,f,0,1.081135,,28,0,28,0,1,,,,,,,conf_haus,,,,,,,,,,,,,,,,,,,,,,,,,,DP,2,2,2020-11-16_09h33.10.896,configural_featural,2020.2.4,Linux x86_64,60,1920,1080,,0,0.19509888,0,Stimuli/H-8sim3.png,Stimuli/H-8sim2.png,,,,f,0,1.427185,,29,0,29,0,1,,,,,,,conf_haus,,,,,,,,,,,,,,,,,,,,,,,,,,DP,2,2,2020-11-16_09h33.10.896,configural_featural,2020.2.4,Linux x86_64,60,1920,1080,,0,-0.19509888,0,Stimuli/H-8sim3.png,Stimuli/H-8sim0.png,,,,j,1,0.607735,,30,0,30,0,1,,,,,,,conf_haus,,,,,,,,,,,,,,,,,,,,,,,,,,DP,2,2,2020-11-16_09h33.10.896,configural_featural,2020.2.4,Linux x86_64,60,1920,1080,,0,0.19509888,1,Stimuli/H-8sim2.png,Stimuli/H-8sim2.png,,,,f,1,1.007575,,31,0,31,0,1,,,,,,,conf_haus,,,,,,,,,,,,,,,,,,,,,,,,,,DP,2,2,2020-11-16_09h33.10.896,configural_featural,2020.2.4,Linux x86_64,60,1920,1080,,0,0.19509888,1,Stimuli/H-8sim2.png,Stimuli/H-8sim2.png,,,,f,1,0.9399,,32,0,32,0,1,,,,,,,conf_haus,,,,,,,,,,,,,,,,,,,,,,,,,,DP,2,2,2020-11-16_09h33.10.896,configural_featural,2020.2.4,Linux x86_64,60,1920,1080,,0,0.19509888,0,Stimuli/H-8sim1.png,Stimuli/H-8sim2.png,,,,j,1,0.929175,,33,0,33,0,1,,,,,,,conf_haus,,,,,,,,,,,,,,,,,,,,,,,,,,DP,2,2,2020-11-16_09h33.10.896,configural_featural,2020.2.4,Linux x86_64,60,1920,1080,,0,0.19509888,0,Stimuli/H-8sim2.png,Stimuli/H-8sim0.png,,,,j,1,0.58059,,34,0,34,0,1,,,,,,,conf_haus,,,,,,,,,,,,,,,,,,,,,,,,,,DP,2,2,2020-11-16_09h33.10.896,configural_featural,2020.2.4,Linux x86_64,60,1920,1080,,1,-0.19509888,1,Stimuli/H-8sim1.png,Stimuli/H-8sim1.png,,,,f,1,1.029775,space,35,0,35,0,1,0.240915,,,,,,conf_haus,,,,,,,,,,,,,,,,,,,,,,,,,,DP,2,2,2020-11-16_09h33.10.896,configural_featural,2020.2.4,Linux x86_64,60,1920,1080,,1,-0.19509888,0,Stimuli/H-8sim2.png,Stimuli/H-8sim3.png,,,,f,0,3.41042,,36,0,36,0,1,,,,,,,conf_haus,,,,,,,,,,,,,,,,,,,,,,,,,,DP,2,2,2020-11-16_09h33.10.896,configural_featural,2020.2.4,Linux x86_64,60,1920,1080,,0,0.19509888,1,Stimuli/H-8sim0.png,Stimuli/H-8sim0.png,,,,f,1,1.111135,,37,0,37,0,1,,,,,,,conf_haus,,,,,,,,,,,,,,,,,,,,,,,,,,DP,2,2,2020-11-16_09h33.10.896,configural_featural,2020.2.4,Linux x86_64,60,1920,1080,,0,-0.19509888,0,Stimuli/H-8sim2.png,Stimuli/H-8sim1.png,,,,f,0,0.54796,,38,0,38,0,1,,,,,,,conf_haus,,,,,,,,,,,,,,,,,,,,,,,,,,DP,2,2,2020-11-16_09h33.10.896,configural_featural,2020.2.4,Linux x86_64,60,1920,1080,,1,-0.19509888,1,Stimuli/H-8sim2.png,Stimuli/H-8sim2.png,,,,f,1,1.380825,space,39,0,39,0,1,0.24309,,,,,,conf_haus,,,,,,,,,,,,,,,,,,,,,,,,,,DP,2,2,2020-11-16_09h33.10.896,configural_featural,2020.2.4,Linux x86_64,60,1920,1080,,0,-0.19509888,0,Stimuli/H-8sim1.png,Stimuli/H-8sim3.png,,,,j,1,1.790855,,40,0,40,0,1,,,,,,,conf_haus,,,,,,,,,,,,,,,,,,,,,,,,,,DP,2,2,2020-11-16_09h33.10.896,configural_featural,2020.2.4,Linux x86_64,60,1920,1080,,0,0.19509888,1,Stimuli/H-8sim3.png,Stimuli/H-8sim3.png,,,,f,1,4.842905,,41,0,41,0,1,,,,,,,conf_haus,,,,,,,,,,,,,,,,,,,,,,,,,,DP,2,2,2020-11-16_09h33.10.896,configural_featural,2020.2.4,Linux x86_64,60,1920,1080,,0,-0.19509888,1,Stimuli/H-8sim3.png,Stimuli/H-8sim3.png,,,,f,1,1.15886,,42,0,42,0,1,,,,,,,conf_haus,,,,,,,,,,,,,,,,,,,,,,,,,,DP,2,2,2020-11-16_09h33.10.896,configural_featural,2020.2.4,Linux x86_64,60,1920,1080,,0,0.19509888,1,Stimuli/H-8sim1.png,Stimuli/H-8sim1.png,,,,j,0,0.38987,,43,0,43,0,1,,,,,,,conf_haus,,,,,,,,,,,,,,,,,,,,,,,,,,DP,2,2,2020-11-16_09h33.10.896,configural_featural,2020.2.4,Linux x86_64,60,1920,1080,,0,-0.19509888,0,Stimuli/H-8sim3.png,Stimuli/H-8sim1.png,,,,j,1,1.02333,,44,0,44,0,1,,,,,,,conf_haus,,,,,,,,,,,,,,,,,,,,,,,,,,DP,2,2,2020-11-16_09h33.10.896,configural_featural,2020.2.4,Linux x86_64,60,1920,1080,,0,-0.19509888,0,Stimuli/H-8sim1.png,Stimuli/H-8sim0.png,,,,j,1,2.833585,,45,0,45,0,1,,,,,,,conf_haus,,,,,,,,,,,,,,,,,,,,,,,,,,DP,2,2,2020-11-16_09h33.10.896,configural_featural,2020.2.4,Linux x86_64,60,1920,1080,,0,-0.19509888,1,Stimuli/H-8sim0.png,Stimuli/H-8sim0.png,,,,f,1,1.012275,,46,0,46,0,1,,,,,,,conf_haus,,,,,,,,,,,,,,,,,,,,,,,,,,DP,2,2,2020-11-16_09h33.10.896,configural_featural,2020.2.4,Linux x86_64,60,1920,1080,,0,-0.19509888,0,Stimuli/H-8sim2.png,Stimuli/H-8sim0.png,,,,j,1,0.57758,,47,0,47,0,1,,,,,,,conf_haus,,,,,,,,,,,,,,,,,,,,,,,,,,DP,2,2,2020-11-16_09h33.10.896,configural_featural,2020.2.4,Linux x86_64,60,1920,1080,,,,,,,,,,,,,,,,,,,,0,3,3,3,1,conf_haus,Designs/instructions_haus_1234.png,,,,,,,,,,,,,,,,,,,,,,,,,DP,2,2,2020-11-16_09h33.10.896,configural_featural,2020.2.4,Linux x86_64,60,1920,1080,,0,-0.19509888,1,Stimuli/f15.png,Stimuli/f15.png,,,,f,1,1.647725,,0,0,0,0,1,,,,,,,feat_face,,,,,,,,,,,,,,,,,,,,,,,,,,DP,2,2,2020-11-16_09h33.10.896,configural_featural,2020.2.4,Linux x86_64,60,1920,1080,,0,-0.19509888,1,Stimuli/f131.png,Stimuli/f131.png,,,,j,0,1.278515,,1,0,1,0,1,,,,,,,feat_face,,,,,,,,,,,,,,,,,,,,,,,,,,DP,2,2,2020-11-16_09h33.10.896,configural_featural,2020.2.4,Linux x86_64,60,1920,1080,,0,-0.19509888,0,Stimuli/f131.png,Stimuli/f15.png,,,,j,1,0.81101,,2,0,2,0,1,,,,,,,feat_face,,,,,,,,,,,,,,,,,,,,,,,,,,DP,2,2,2020-11-16_09h33.10.896,configural_featural,2020.2.4,Linux x86_64,60,1920,1080,,0,0.19509888,0,Stimuli/f131.png,Stimuli/f24.png,,,,j,1,0.840355,,3,0,3,0,1,,,,,,,feat_face,,,,,,,,,,,,,,,,,,,,,,,,,,DP,2,2,2020-11-16_09h33.10.896,configural_featural,2020.2.4,Linux x86_64,60,1920,1080,,0,-0.19509888,0,Stimuli/f131.png,Stimuli/f24.png,,,,j,1,0.923105,,4,0,4,0,1,,,,,,,feat_face,,,,,,,,,,,,,,,,,,,,,,,,,,DP,2,2,2020-11-16_09h33.10.896,configural_featural,2020.2.4,Linux x86_64,60,1920,1080,,1,-0.19509888,1,Stimuli/f24.png,Stimuli/f24.png,,,,j,0,7.272075,space,5,0,5,0,1,0.180015,,,,,,feat_face,,,,,,,,,,,,,,,,,,,,,,,,,,DP,2,2,2020-11-16_09h33.10.896,configural_featural,2020.2.4,Linux x86_64,60,1920,1080,,0,-0.19509888,1,Stimuli/f142.png,Stimuli/f142.png,,,,f,1,0.827975,,6,0,6,0,1,,,,,,,feat_face,,,,,,,,,,,,,,,,,,,,,,,,,,DP,2,2,2020-11-16_09h33.10.896,configural_featural,2020.2.4,Linux x86_64,60,1920,1080,,0,-0.19509888,0,Stimuli/f15.png,Stimuli/f131.png,,,,j,1,0.540545,,7,0,7,0,1,,,,,,,feat_face,,,,,,,,,,,,,,,,,,,,,,,,,,DP,2,2,2020-11-16_09h33.10.896,configural_featural,2020.2.4,Linux x86_64,60,1920,1080,,0,0.19509888,0,Stimuli/f142.png,Stimuli/f15.png,,,,j,1,0.738535,,8,0,8,0,1,,,,,,,feat_face,,,,,,,,,,,,,,,,,,,,,,,,,,DP,2,2,2020-11-16_09h33.10.896,configural_featural,2020.2.4,Linux x86_64,60,1920,1080,,0,0.19509888,0,Stimuli/f24.png,Stimuli/f142.png,,,,j,1,0.65576,,9,0,9,0,1,,,,,,,feat_face,,,,,,,,,,,,,,,,,,,,,,,,,,DP,2,2,2020-11-16_09h33.10.896,configural_featural,2020.2.4,Linux x86_64,60,1920,1080,,0,0.19509888,1,Stimuli/f142.png,Stimuli/f142.png,,,,f,1,0.90658,,10,0,10,0,1,,,,,,,feat_face,,,,,,,,,,,,,,,,,,,,,,,,,,DP,2,2,2020-11-16_09h33.10.896,configural_featural,2020.2.4,Linux x86_64,60,1920,1080,,1,-0.19509888,1,Stimuli/f15.png,Stimuli/f15.png,,,,f,1,1.32333,space,11,0,11,0,1,0.248415,,,,,,feat_face,,,,,,,,,,,,,,,,,,,,,,,,,,DP,2,2,2020-11-16_09h33.10.896,configural_featural,2020.2.4,Linux x86_64,60,1920,1080,,0,0.19509888,0,Stimuli/f142.png,Stimuli/f131.png,,,,j,1,0.731025,,12,0,12,0,1,,,,,,,feat_face,,,,,,,,,,,,,,,,,,,,,,,,,,DP,2,2,2020-11-16_09h33.10.896,configural_featural,2020.2.4,Linux x86_64,60,1920,1080,,0,-0.19509888,1,Stimuli/f131.png,Stimuli/f131.png,,,,f,1,0.99058,,13,0,13,0,1,,,,,,,feat_face,,,,,,,,,,,,,,,,,,,,,,,,,,DP,2,2,2020-11-16_09h33.10.896,configural_featural,2020.2.4,Linux x86_64,60,1920,1080,,0,-0.19509888,0,Stimuli/f142.png,Stimuli/f15.png,,,,j,1,0.598895,,14,0,14,0,1,,,,,,,feat_face,,,,,,,,,,,,,,,,,,,,,,,,,,DP,2,2,2020-11-16_09h33.10.896,configural_featural,2020.2.4,Linux x86_64,60,1920,1080,,0,0.19509888,1,Stimuli/f24.png,Stimuli/f24.png,,,,j,0,0.823135,,15,0,15,0,1,,,,,,,feat_face,,,,,,,,,,,,,,,,,,,,,,,,,,DP,2,2,2020-11-16_09h33.10.896,configural_featural,2020.2.4,Linux x86_64,60,1920,1080,,1,0.19509888,0,Stimuli/f142.png,Stimuli/f24.png,,,,f,0,0.922685,space,16,0,16,0,1,0.19823,,,,,,feat_face,,,,,,,,,,,,,,,,,,,,,,,,,,DP,2,2,2020-11-16_09h33.10.896,configural_featural,2020.2.4,Linux x86_64,60,1920,1080,,0,0.19509888,1,Stimuli/f131.png,Stimuli/f131.png,,,,j,0,0.745015,,17,0,17,0,1,,,,,,,feat_face,,,,,,,,,,,,,,,,,,,,,,,,,,DP,2,2,2020-11-16_09h33.10.896,configural_featural,2020.2.4,Linux x86_64,60,1920,1080,,0,-0.19509888,1,Stimuli/f24.png,Stimuli/f24.png,,,,f,1,1.323195,,18,0,18,0,1,,,,,,,feat_face,,,,,,,,,,,,,,,,,,,,,,,,,,DP,2,2,2020-11-16_09h33.10.896,configural_featural,2020.2.4,Linux x86_64,60,1920,1080,,0,0.19509888,0,Stimuli/f24.png,Stimuli/f131.png,,,,j,1,0.694975,,19,0,19,0,1,,,,,,,feat_face,,,,,,,,,,,,,,,,,,,,,,,,,,DP,2,2,2020-11-16_09h33.10.896,configural_featural,2020.2.4,Linux x86_64,60,1920,1080,,0,0.19509888,0,Stimuli/f15.png,Stimuli/f142.png,,,,j,1,0.6793,,20,0,20,0,1,,,,,,,feat_face,,,,,,,,,,,,,,,,,,,,,,,,,,DP,2,2,2020-11-16_09h33.10.896,configural_featural,2020.2.4,Linux x86_64,60,1920,1080,,0,-0.19509888,0,Stimuli/f15.png,Stimuli/f142.png,,,,f,0,0.54291,,21,0,21,0,1,,,,,,,feat_face,,,,,,,,,,,,,,,,,,,,,,,,,,DP,2,2,2020-11-16_09h33.10.896,configural_featural,2020.2.4,Linux x86_64,60,1920,1080,,0,0.19509888,1,Stimuli/f15.png,Stimuli/f15.png,,,,f,1,0.623375,,22,0,22,0,1,,,,,,,feat_face,,,,,,,,,,,,,,,,,,,,,,,,,,DP,2,2,2020-11-16_09h33.10.896,configural_featural,2020.2.4,Linux x86_64,60,1920,1080,,0,-0.19509888,1,Stimuli/f142.png,Stimuli/f142.png,,,,f,1,0.611315,,23,0,23,0,1,,,,,,,feat_face,,,,,,,,,,,,,,,,,,,,,,,,,,DP,2,2,2020-11-16_09h33.10.896,configural_featural,2020.2.4,Linux x86_64,60,1920,1080,,0,0.19509888,1,Stimuli/f24.png,Stimuli/f24.png,,,,j,0,0.857505,,24,0,24,0,1,,,,,,,feat_face,,,,,,,,,,,,,,,,,,,,,,,,,,DP,2,2,2020-11-16_09h33.10.896,configural_featural,2020.2.4,Linux x86_64,60,1920,1080,,0,0.19509888,0,Stimuli/f15.png,Stimuli/f131.png,,,,j,1,0.532045,,25,0,25,0,1,,,,,,,feat_face,,,,,,,,,,,,,,,,,,,,,,,,,,DP,2,2,2020-11-16_09h33.10.896,configural_featural,2020.2.4,Linux x86_64,60,1920,1080,,0,-0.19509888,1,Stimuli/f142.png,Stimuli/f142.png,,,,f,1,1.790085,,26,0,26,0,1,,,,,,,feat_face,,,,,,,,,,,,,,,,,,,,,,,,,,DP,2,2,2020-11-16_09h33.10.896,configural_featural,2020.2.4,Linux x86_64,60,1920,1080,,0,-0.19509888,0,Stimuli/f142.png,Stimuli/f131.png,,,,f,0,1.494285,,27,0,27,0,1,,,,,,,feat_face,,,,,,,,,,,,,,,,,,,,,,,,,,DP,2,2,2020-11-16_09h33.10.896,configural_featural,2020.2.4,Linux x86_64,60,1920,1080,,0,-0.19509888,0,Stimuli/f24.png,Stimuli/f131.png,,,,j,1,0.59571,,28,0,28,0,1,,,,,,,feat_face,,,,,,,,,,,,,,,,,,,,,,,,,,DP,2,2,2020-11-16_09h33.10.896,configural_featural,2020.2.4,Linux x86_64,60,1920,1080,,0,0.19509888,1,Stimuli/f131.png,Stimuli/f131.png,,,,j,0,1.0939,,29,0,29,0,1,,,,,,,feat_face,,,,,,,,,,,,,,,,,,,,,,,,,,DP,2,2,2020-11-16_09h33.10.896,configural_featural,2020.2.4,Linux x86_64,60,1920,1080,,0,0.19509888,1,Stimuli/f15.png,Stimuli/f15.png,,,,f,1,0.84145,,30,0,30,0,1,,,,,,,feat_face,,,,,,,,,,,,,,,,,,,,,,,,,,DP,2,2,2020-11-16_09h33.10.896,configural_featural,2020.2.4,Linux x86_64,60,1920,1080,,0,-0.19509888,0,Stimuli/f131.png,Stimuli/f142.png,,,,j,1,0.6483,,31,0,31,0,1,,,,,,,feat_face,,,,,,,,,,,,,,,,,,,,,,,,,,DP,2,2,2020-11-16_09h33.10.896,configural_featural,2020.2.4,Linux x86_64,60,1920,1080,,0,-0.19509888,1,Stimuli/f131.png,Stimuli/f131.png,,,,f,1,1.54029,,32,0,32,0,1,,,,,,,feat_face,,,,,,,,,,,,,,,,,,,,,,,,,,DP,2,2,2020-11-16_09h33.10.896,configural_featural,2020.2.4,Linux x86_64,60,1920,1080,,0,-0.19509888,0,Stimuli/f24.png,Stimuli/f15.png,,,,j,1,0.615645,,33,0,33,0,1,,,,,,,feat_face,,,,,,,,,,,,,,,,,,,,,,,,,,DP,2,2,2020-11-16_09h33.10.896,configural_featural,2020.2.4,Linux x86_64,60,1920,1080,,1,-0.19509888,1,Stimuli/f15.png,Stimuli/f15.png,,,,f,1,0.996695,space,34,0,34,0,1,0.4226,,,,,,feat_face,,,,,,,,,,,,,,,,,,,,,,,,,,DP,2,2,2020-11-16_09h33.10.896,configural_featural,2020.2.4,Linux x86_64,60,1920,1080,,1,-0.19509888,0,Stimuli/f15.png,Stimuli/f24.png,,,,j,1,0.52785,,35,0,35,0,1,,,,,,,feat_face,,,,,,,,,,,,,,,,,,,,,,,,,,DP,2,2,2020-11-16_09h33.10.896,configural_featural,2020.2.4,Linux x86_64,60,1920,1080,,0,-0.19509888,0,Stimuli/f142.png,Stimuli/f24.png,,,,j,1,1.61339,,36,0,36,0,1,,,,,,,feat_face,,,,,,,,,,,,,,,,,,,,,,,,,,DP,2,2,2020-11-16_09h33.10.896,configural_featural,2020.2.4,Linux x86_64,60,1920,1080,,0,0.19509888,0,Stimuli/f131.png,Stimuli/f15.png,,,,j,1,0.7785,,37,0,37,0,1,,,,,,,feat_face,,,,,,,,,,,,,,,,,,,,,,,,,,DP,2,2,2020-11-16_09h33.10.896,configural_featural,2020.2.4,Linux x86_64,60,1920,1080,,0,0.19509888,1,Stimuli/f142.png,Stimuli/f142.png,,,,j,0,0.713525,,38,0,38,0,1,,,,,,,feat_face,,,,,,,,,,,,,,,,,,,,,,,,,,DP,2,2,2020-11-16_09h33.10.896,configural_featural,2020.2.4,Linux x86_64,60,1920,1080,,1,0.19509888,1,Stimuli/f15.png,Stimuli/f15.png,,,,f,1,0.85573,space,39,0,39,0,1,0.26382,,,,,,feat_face,,,,,,,,,,,,,,,,,,,,,,,,,,DP,2,2,2020-11-16_09h33.10.896,configural_featural,2020.2.4,Linux x86_64,60,1920,1080,,0,0.19509888,0,Stimuli/f131.png,Stimuli/f142.png,,,,j,1,0.84196,,40,0,40,0,1,,,,,,,feat_face,,,,,,,,,,,,,,,,,,,,,,,,,,DP,2,2,2020-11-16_09h33.10.896,configural_featural,2020.2.4,Linux x86_64,60,1920,1080,,0,-0.19509888,1,Stimuli/f24.png,Stimuli/f24.png,,,,f,1,0.72581,,41,0,41,0,1,,,,,,,feat_face,,,,,,,,,,,,,,,,,,,,,,,,,,DP,2,2,2020-11-16_09h33.10.896,configural_featural,2020.2.4,Linux x86_64,60,1920,1080,,0,0.19509888,1,Stimuli/f24.png,Stimuli/f24.png,,,,f,1,1.57952,,42,0,42,0,1,,,,,,,feat_face,,,,,,,,,,,,,,,,,,,,,,,,,,DP,2,2,2020-11-16_09h33.10.896,configural_featural,2020.2.4,Linux x86_64,60,1920,1080,,0,-0.19509888,0,Stimuli/f24.png,Stimuli/f142.png,,,,j,1,0.69028,,43,0,43,0,1,,,,,,,feat_face,,,,,,,,,,,,,,,,,,,,,,,,,,DP,2,2,2020-11-16_09h33.10.896,configural_featural,2020.2.4,Linux x86_64,60,1920,1080,,0,0.19509888,1,Stimuli/f131.png,Stimuli/f131.png,,,,f,1,0.644185,,44,0,44,0,1,,,,,,,feat_face,,,,,,,,,,,,,,,,,,,,,,,,,,DP,2,2,2020-11-16_09h33.10.896,configural_featural,2020.2.4,Linux x86_64,60,1920,1080,,0,0.19509888,1,Stimuli/f142.png,Stimuli/f142.png,,,,j,0,0.64557,,45,0,45,0,1,,,,,,,feat_face,,,,,,,,,,,,,,,,,,,,,,,,,,DP,2,2,2020-11-16_09h33.10.896,configural_featural,2020.2.4,Linux x86_64,60,1920,1080,,0,0.19509888,0,Stimuli/f24.png,Stimuli/f15.png,,,,j,1,1.698935,,46,0,46,0,1,,,,,,,feat_face,,,,,,,,,,,,,,,,,,,,,,,,,,DP,2,2,2020-11-16_09h33.10.896,configural_featural,2020.2.4,Linux x86_64,60,1920,1080,,0,0.19509888,0,Stimuli/f15.png,Stimuli/f24.png,,,,j,1,2.71031,,47,0,47,0,1,,,,,,,feat_face,,,,,,,,,,,,,,,,,,,,,,,,,,DP,2,2,2020-11-16_09h33.10.896,configural_featural,2020.2.4,Linux x86_64,60,1920,1080,,,,,,,,,,,,,,,,,,,,1,0,4,0,1,feat_face,Designs/instructions_face_1234.png,,,,,,,,,,,,,,,,,,,,,,,,,DP,2,2,2020-11-16_09h33.10.896,configural_featural,2020.2.4,Linux x86_64,60,1920,1080,,0,0.19509888,1,Stimuli/H7sim0.png,Stimuli/H7sim0.png,,,,f,1,1.493305,,0,0,0,0,1,,,,,,,feat_haus,,,,,,,,,,,,,,,,,,,,,,,,,,DP,2,2,2020-11-16_09h33.10.896,configural_featural,2020.2.4,Linux x86_64,60,1920,1080,,0,-0.19509888,1,Stimuli/H7sim0.png,Stimuli/H7sim0.png,,,,f,1,1.829295,,1,0,1,0,1,,,,,,,feat_haus,,,,,,,,,,,,,,,,,,,,,,,,,,DP,2,2,2020-11-16_09h33.10.896,configural_featural,2020.2.4,Linux x86_64,60,1920,1080,,0,0.19509888,0,Stimuli/H6sim0.png,Stimuli/H8sim0.png,,,,j,1,0.427525,,2,0,2,0,1,,,,,,,feat_haus,,,,,,,,,,,,,,,,,,,,,,,,,,DP,2,2,2020-11-16_09h33.10.896,configural_featural,2020.2.4,Linux x86_64,60,1920,1080,,1,-0.19509888,0,Stimuli/H6sim0.png,Stimuli/H5sim0.png,,,,j,1,1.25659,,3,0,3,0,1,,,,,,,feat_haus,,,,,,,,,,,,,,,,,,,,,,,,,,DP,2,2,2020-11-16_09h33.10.896,configural_featural,2020.2.4,Linux x86_64,60,1920,1080,,0,-0.19509888,0,Stimuli/H8sim0.png,Stimuli/H5sim0.png,,,,f,0,4.447925,,4,0,4,0,1,,,,,,,feat_haus,,,,,,,,,,,,,,,,,,,,,,,,,,DP,2,2,2020-11-16_09h33.10.896,configural_featural,2020.2.4,Linux x86_64,60,1920,1080,,1,0.19509888,1,Stimuli/H5sim0.png,Stimuli/H5sim0.png,,,,f,1,2.776075,space,5,0,5,0,1,1.45681,,,,,,feat_haus,,,,,,,,,,,,,,,,,,,,,,,,,,DP,2,2,2020-11-16_09h33.10.896,configural_featural,2020.2.4,Linux x86_64,60,1920,1080,,1,0.19509888,1,Stimuli/H8sim0.png,Stimuli/H8sim0.png,,,,f,1,1.098295,,6,0,6,0,1,,,,,,,feat_haus,,,,,,,,,,,,,,,,,,,,,,,,,,DP,2,2,2020-11-16_09h33.10.896,configural_featural,2020.2.4,Linux x86_64,60,1920,1080,,0,0.19509888,0,Stimuli/H5sim0.png,Stimuli/H6sim0.png,,,,f,0,3.34516,space,7,0,7,0,1,2.561475,,,,,,feat_haus,,,,,,,,,,,,,,,,,,,,,,,,,,DP,2,2,2020-11-16_09h33.10.896,configural_featural,2020.2.4,Linux x86_64,60,1920,1080,,0,0.19509888,1,Stimuli/H6sim0.png,Stimuli/H6sim0.png,,,,f,1,0.99755,,8,0,8,0,1,,,,,,,feat_haus,,,,,,,,,,,,,,,,,,,,,,,,,,DP,2,2,2020-11-16_09h33.10.896,configural_featural,2020.2.4,Linux x86_64,60,1920,1080,,0,-0.19509888,0,Stimuli/H6sim0.png,Stimuli/H7sim0.png,,,,j,1,0.440765,,9,0,9,0,1,,,,,,,feat_haus,,,,,,,,,,,,,,,,,,,,,,,,,,DP,2,2,2020-11-16_09h33.10.896,configural_featural,2020.2.4,Linux x86_64,60,1920,1080,,0,0.19509888,1,Stimuli/H6sim0.png,Stimuli/H6sim0.png,,,,f,1,0.98046,,10,0,10,0,1,,,,,,,feat_haus,,,,,,,,,,,,,,,,,,,,,,,,,,DP,2,2,2020-11-16_09h33.10.896,configural_featural,2020.2.4,Linux x86_64,60,1920,1080,,0,0.19509888,0,Stimuli/H6sim0.png,Stimuli/H7sim0.png,,,,j,1,0.72584,,11,0,11,0,1,,,,,,,feat_haus,,,,,,,,,,,,,,,,,,,,,,,,,,DP,2,2,2020-11-16_09h33.10.896,configural_featural,2020.2.4,Linux x86_64,60,1920,1080,,0,0.19509888,1,Stimuli/H5sim0.png,Stimuli/H5sim0.png,,,,f,1,1.79548,,12,0,12,0,1,,,,,,,feat_haus,,,,,,,,,,,,,,,,,,,,,,,,,,DP,2,2,2020-11-16_09h33.10.896,configural_featural,2020.2.4,Linux x86_64,60,1920,1080,,0,0.19509888,1,Stimuli/H7sim0.png,Stimuli/H7sim0.png,,,,f,1,0.93179,,13,0,13,0,1,,,,,,,feat_haus,,,,,,,,,,,,,,,,,,,,,,,,,,DP,2,2,2020-11-16_09h33.10.896,configural_featural,2020.2.4,Linux x86_64,60,1920,1080,,0,0.19509888,1,Stimuli/H8sim0.png,Stimuli/H8sim0.png,,,,j,0,0.761035,,14,0,14,0,1,,,,,,,feat_haus,,,,,,,,,,,,,,,,,,,,,,,,,,DP,2,2,2020-11-16_09h33.10.896,configural_featural,2020.2.4,Linux x86_64,60,1920,1080,,0,0.19509888,0,Stimuli/H7sim0.png,Stimuli/H6sim0.png,,,,j,1,0.70767,,15,0,15,0,1,,,,,,,feat_haus,,,,,,,,,,,,,,,,,,,,,,,,,,DP,2,2,2020-11-16_09h33.10.896,configural_featural,2020.2.4,Linux x86_64,60,1920,1080,,1,0.19509888,0,Stimuli/H7sim0.png,Stimuli/H5sim0.png,,,,f,0,0.84949,space,16,0,16,0,1,0.276885,,,,,,feat_haus,,,,,,,,,,,,,,,,,,,,,,,,,,DP,2,2,2020-11-16_09h33.10.896,configural_featural,2020.2.4,Linux x86_64,60,1920,1080,,1,-0.19509888,0,Stimuli/H8sim0.png,Stimuli/H7sim0.png,,,,j,1,2.2743,,17,0,17,0,1,,,,,,,feat_haus,,,,,,,,,,,,,,,,,,,,,,,,,,DP,2,2,2020-11-16_09h33.10.896,configural_featural,2020.2.4,Linux x86_64,60,1920,1080,,0,-0.19509888,1,Stimuli/H6sim0.png,Stimuli/H6sim0.png,,,,f,1,1.076045,,18,0,18,0,1,,,,,,,feat_haus,,,,,,,,,,,,,,,,,,,,,,,,,,DP,2,2,2020-11-16_09h33.10.896,configural_featural,2020.2.4,Linux x86_64,60,1920,1080,,0,-0.19509888,0,Stimuli/H7sim0.png,Stimuli/H8sim0.png,,,,j,1,0.39143,,19,0,19,0,1,,,,,,,feat_haus,,,,,,,,,,,,,,,,,,,,,,,,,,DP,2,2,2020-11-16_09h33.10.896,configural_featural,2020.2.4,Linux x86_64,60,1920,1080,,0,-0.19509888,1,Stimuli/H5sim0.png,Stimuli/H5sim0.png,,,,f,1,0.84362,,20,0,20,0,1,,,,,,,feat_haus,,,,,,,,,,,,,,,,,,,,,,,,,,DP,2,2,2020-11-16_09h33.10.896,configural_featural,2020.2.4,Linux x86_64,60,1920,1080,,0,-0.19509888,1,Stimuli/H8sim0.png,Stimuli/H8sim0.png,,,,f,1,1.662945,,21,0,21,0,1,,,,,,,feat_haus,,,,,,,,,,,,,,,,,,,,,,,,,,DP,2,2,2020-11-16_09h33.10.896,configural_featural,2020.2.4,Linux x86_64,60,1920,1080,,0,-0.19509888,0,Stimuli/H6sim0.png,Stimuli/H8sim0.png,,,,j,1,0.612055,,22,0,22,0,1,,,,,,,feat_haus,,,,,,,,,,,,,,,,,,,,,,,,,,DP,2,2,2020-11-16_09h33.10.896,configural_featural,2020.2.4,Linux x86_64,60,1920,1080,,0,-0.19509888,0,Stimuli/H5sim0.png,Stimuli/H8sim0.png,,,,j,1,0.99769,,23,0,23,0,1,,,,,,,feat_haus,,,,,,,,,,,,,,,,,,,,,,,,,,DP,2,2,2020-11-16_09h33.10.896,configural_featural,2020.2.4,Linux x86_64,60,1920,1080,,0,0.19509888,0,Stimuli/H8sim0.png,Stimuli/H5sim0.png,,,,j,1,0.87393,,24,0,24,0,1,,,,,,,feat_haus,,,,,,,,,,,,,,,,,,,,,,,,,,DP,2,2,2020-11-16_09h33.10.896,configural_featural,2020.2.4,Linux x86_64,60,1920,1080,,0,0.19509888,1,Stimuli/H7sim0.png,Stimuli/H7sim0.png,,,,f,1,0.847805,,25,0,25,0,1,,,,,,,feat_haus,,,,,,,,,,,,,,,,,,,,,,,,,,DP,2,2,2020-11-16_09h33.10.896,configural_featural,2020.2.4,Linux x86_64,60,1920,1080,,0,-0.19509888,1,Stimuli/H8sim0.png,Stimuli/H8sim0.png,,,,f,1,1.19079,,26,0,26,0,1,,,,,,,feat_haus,,,,,,,,,,,,,,,,,,,,,,,,,,DP,2,2,2020-11-16_09h33.10.896,configural_featural,2020.2.4,Linux x86_64,60,1920,1080,,0,0.19509888,0,Stimuli/H8sim0.png,Stimuli/H6sim0.png,,,,j,1,0.926065,,27,0,27,0,1,,,,,,,feat_haus,,,,,,,,,,,,,,,,,,,,,,,,,,DP,2,2,2020-11-16_09h33.10.896,configural_featural,2020.2.4,Linux x86_64,60,1920,1080,,0,-0.19509888,0,Stimuli/H8sim0.png,Stimuli/H6sim0.png,,,,j,1,0.59035,,28,0,28,0,1,,,,,,,feat_haus,,,,,,,,,,,,,,,,,,,,,,,,,,DP,2,2,2020-11-16_09h33.10.896,configural_featural,2020.2.4,Linux x86_64,60,1920,1080,,0,0.19509888,1,Stimuli/H6sim0.png,Stimuli/H6sim0.png,,,,f,1,0.66432,,29,0,29,0,1,,,,,,,feat_haus,,,,,,,,,,,,,,,,,,,,,,,,,,DP,2,2,2020-11-16_09h33.10.896,configural_featural,2020.2.4,Linux x86_64,60,1920,1080,,0,-0.19509888,1,Stimuli/H5sim0.png,Stimuli/H5sim0.png,,,,f,1,0.828385,,30,0,30,0,1,,,,,,,feat_haus,,,,,,,,,,,,,,,,,,,,,,,,,,DP,2,2,2020-11-16_09h33.10.896,configural_featural,2020.2.4,Linux x86_64,60,1920,1080,,0,0.19509888,0,Stimuli/H6sim0.png,Stimuli/H5sim0.png,,,,f,0,1.9248,,31,0,31,0,1,,,,,,,feat_haus,,,,,,,,,,,,,,,,,,,,,,,,,,DP,2,2,2020-11-16_09h33.10.896,configural_featural,2020.2.4,Linux x86_64,60,1920,1080,,0,-0.19509888,0,Stimuli/H7sim0.png,Stimuli/H5sim0.png,,,,j,1,0.372425,,32,0,32,0,1,,,,,,,feat_haus,,,,,,,,,,,,,,,,,,,,,,,,,,DP,2,2,2020-11-16_09h33.10.896,configural_featural,2020.2.4,Linux x86_64,60,1920,1080,,0,0.19509888,0,Stimuli/H8sim0.png,Stimuli/H7sim0.png,,,,j,1,1.0274,,33,0,33,0,1,,,,,,,feat_haus,,,,,,,,,,,,,,,,,,,,,,,,,,DP,2,2,2020-11-16_09h33.10.896,configural_featural,2020.2.4,Linux x86_64,60,1920,1080,,0,-0.19509888,1,Stimuli/H7sim0.png,Stimuli/H7sim0.png,,,,f,1,1.377755,,34,0,34,0,1,,,,,,,feat_haus,,,,,,,,,,,,,,,,,,,,,,,,,,DP,2,2,2020-11-16_09h33.10.896,configural_featural,2020.2.4,Linux x86_64,60,1920,1080,,0,-0.19509888,1,Stimuli/H6sim0.png,Stimuli/H6sim0.png,,,,f,1,1.176985,,35,0,35,0,1,,,,,,,feat_haus,,,,,,,,,,,,,,,,,,,,,,,,,,DP,2,2,2020-11-16_09h33.10.896,configural_featural,2020.2.4,Linux x86_64,60,1920,1080,,1,0.19509888,0,Stimuli/H5sim0.png,Stimuli/H8sim0.png,,,,j,1,0.84042,space,36,0,36,0,1,0.34034,,,,,,feat_haus,,,,,,,,,,,,,,,,,,,,,,,,,,DP,2,2,2020-11-16_09h33.10.896,configural_featural,2020.2.4,Linux x86_64,60,1920,1080,,0,0.19509888,0,Stimuli/H5sim0.png,Stimuli/H7sim0.png,,,,j,1,0.72427,,37,0,37,0,1,,,,,,,feat_haus,,,,,,,,,,,,,,,,,,,,,,,,,,DP,2,2,2020-11-16_09h33.10.896,configural_featural,2020.2.4,Linux x86_64,60,1920,1080,,0,-0.19509888,0,Stimuli/H7sim0.png,Stimuli/H6sim0.png,,,,j,1,0.556555,,38,0,38,0,1,,,,,,,feat_haus,,,,,,,,,,,,,,,,,,,,,,,,,,DP,2,2,2020-11-16_09h33.10.896,configural_featural,2020.2.4,Linux x86_64,60,1920,1080,,0,-0.19509888,1,Stimuli/H8sim0.png,Stimuli/H8sim0.png,,,,f,1,0.7969,,39,0,39,0,1,,,,,,,feat_haus,,,,,,,,,,,,,,,,,,,,,,,,,,DP,2,2,2020-11-16_09h33.10.896,configural_featural,2020.2.4,Linux x86_64,60,1920,1080,,0,0.19509888,1,Stimuli/H8sim0.png,Stimuli/H8sim0.png,,,,f,1,3.85589,,40,0,40,0,1,,,,,,,feat_haus,,,,,,,,,,,,,,,,,,,,,,,,,,DP,2,2,2020-11-16_09h33.10.896,configural_featural,2020.2.4,Linux x86_64,60,1920,1080,,0,0.19509888,1,Stimuli/H5sim0.png,Stimuli/H5sim0.png,,,,f,1,1.74211,,41,0,41,0,1,,,,,,,feat_haus,,,,,,,,,,,,,,,,,,,,,,,,,,DP,2,2,2020-11-16_09h33.10.896,configural_featural,2020.2.4,Linux x86_64,60,1920,1080,,0,0.19509888,0,Stimuli/H7sim0.png,Stimuli/H8sim0.png,,,,j,1,0.40739,,42,0,42,0,1,,,,,,,feat_haus,,,,,,,,,,,,,,,,,,,,,,,,,,DP,2,2,2020-11-16_09h33.10.896,configural_featural,2020.2.4,Linux x86_64,60,1920,1080,,0,-0.19509888,1,Stimuli/H5sim0.png,Stimuli/H5sim0.png,,,,f,1,1.048255,,43,0,43,0,1,,,,,,,feat_haus,,,,,,,,,,,,,,,,,,,,,,,,,,DP,2,2,2020-11-16_09h33.10.896,configural_featural,2020.2.4,Linux x86_64,60,1920,1080,,0,-0.19509888,0,Stimuli/H5sim0.png,Stimuli/H7sim0.png,,,,j,1,0.338765,,44,0,44,0,1,,,,,,,feat_haus,,,,,,,,,,,,,,,,,,,,,,,,,,DP,2,2,2020-11-16_09h33.10.896,configural_featural,2020.2.4,Linux x86_64,60,1920,1080,,0,-0.19509888,0,Stimuli/H5sim0.png,Stimuli/H6sim0.png,,,,f,0,0.97464,,45,0,45,0,1,,,,,,,feat_haus,,,,,,,,,,,,,,,,,,,,,,,,,,DP,2,2,2020-11-16_09h33.10.896,configural_featural,2020.2.4,Linux x86_64,60,1920,1080,,0,-0.19509888,1,Stimuli/H6sim0.png,Stimuli/H6sim0.png,,,,f,1,0.707815,,46,0,46,0,1,,,,,,,feat_haus,,,,,,,,,,,,,,,,,,,,,,,,,,DP,2,2,2020-11-16_09h33.10.896,configural_featural,2020.2.4,Linux x86_64,60,1920,1080,,0,-0.19509888,1,Stimuli/H7sim0.png,Stimuli/H7sim0.png,,,,f,1,1.005615,,47,0,47,0,1,,,,,,,feat_haus,,,,,,,,,,,,,,,,,,,,,,,,,,DP,2,2,2020-11-16_09h33.10.896,configural_featural,2020.2.4,Linux x86_64,60,1920,1080,,,,,,,,,,,,,,,,,,,,1,1,5,1,1,feat_haus,Designs/instructions_haus_1234.png,,,,,,,,,,,,,,,,,,,,,,,,,DP,2,2,2020-11-16_09h33.10.896,configural_featural,2020.2.4,Linux x86_64,60,1920,1080,,0,-0.19509888,0,Stimuli/edmd.png,Stimuli/eimd.png,,,,j,1,0.679245,,0,0,0,0,1,,,,,,,conf_face,,,,,,,,,,,,,,,,,,,,,,,,,,DP,2,2,2020-11-16_09h33.10.896,configural_featural,2020.2.4,Linux x86_64,60,1920,1080,,0,0.19509888,1,Stimuli/eimd.png,Stimuli/eimd.png,,,,f,1,0.991695,,1,0,1,0,1,,,,,,,conf_face,,,,,,,,,,,,,,,,,,,,,,,,,,DP,2,2,2020-11-16_09h33.10.896,configural_featural,2020.2.4,Linux x86_64,60,1920,1080,,0,-0.19509888,0,Stimuli/edmd.png,Stimuli/eomu.png,,,,f,0,0.73092,,2,0,2,0,1,,,,,,,conf_face,,,,,,,,,,,,,,,,,,,,,,,,,,DP,2,2,2020-11-16_09h33.10.896,configural_featural,2020.2.4,Linux x86_64,60,1920,1080,,0,-0.19509888,1,Stimuli/edmd.png,Stimuli/edmd.png,,,,f,1,0.81123,,3,0,3,0,1,,,,,,,conf_face,,,,,,,,,,,,,,,,,,,,,,,,,,DP,2,2,2020-11-16_09h33.10.896,configural_featural,2020.2.4,Linux x86_64,60,1920,1080,,0,-0.19509888,1,Stimuli/eomu.png,Stimuli/eomu.png,,,,j,0,0.674225,,4,0,4,0,1,,,,,,,conf_face,,,,,,,,,,,,,,,,,,,,,,,,,,DP,2,2,2020-11-16_09h33.10.896,configural_featural,2020.2.4,Linux x86_64,60,1920,1080,,0,0.19509888,0,Stimuli/eumu.png,Stimuli/edmd.png,,,,f,0,0.827315,,5,0,5,0,1,,,,,,,conf_face,,,,,,,,,,,,,,,,,,,,,,,,,,DP,2,2,2020-11-16_09h33.10.896,configural_featural,2020.2.4,Linux x86_64,60,1920,1080,,0,-0.19509888,1,Stimuli/eumu.png,Stimuli/eumu.png,,,,f,1,1.447615,,6,0,6,0,1,,,,,,,conf_face,,,,,,,,,,,,,,,,,,,,,,,,,,DP,2,2,2020-11-16_09h33.10.896,configural_featural,2020.2.4,Linux x86_64,60,1920,1080,,0,-0.19509888,1,Stimuli/eimd.png,Stimuli/eimd.png,,,,f,1,2.274995,,7,0,7,0,1,,,,,,,conf_face,,,,,,,,,,,,,,,,,,,,,,,,,,DP,2,2,2020-11-16_09h33.10.896,configural_featural,2020.2.4,Linux x86_64,60,1920,1080,,1,-0.19509888,0,Stimuli/eumu.png,Stimuli/eomu.png,,,,f,0,1.108225,space,8,0,8,0,1,0.356835,,,,,,conf_face,,,,,,,,,,,,,,,,,,,,,,,,,,DP,2,2,2020-11-16_09h33.10.896,configural_featural,2020.2.4,Linux x86_64,60,1920,1080,,0,-0.19509888,0,Stimuli/eimd.png,Stimuli/eumu.png,,,,j,1,0.60669,,9,0,9,0,1,,,,,,,conf_face,,,,,,,,,,,,,,,,,,,,,,,,,,DP,2,2,2020-11-16_09h33.10.896,configural_featural,2020.2.4,Linux x86_64,60,1920,1080,,0,0.19509888,0,Stimuli/eomu.png,Stimuli/eumu.png,,,,j,1,1.206655,,10,0,10,0,1,,,,,,,conf_face,,,,,,,,,,,,,,,,,,,,,,,,,,DP,2,2,2020-11-16_09h33.10.896,configural_featural,2020.2.4,Linux x86_64,60,1920,1080,,0,0.19509888,1,Stimuli/eumu.png,Stimuli/eumu.png,,,,f,1,1.52371,,11,0,11,0,1,,,,,,,conf_face,,,,,,,,,,,,,,,,,,,,,,,,,,DP,2,2,2020-11-16_09h33.10.896,configural_featural,2020.2.4,Linux x86_64,60,1920,1080,,0,-0.19509888,1,Stimuli/eomu.png,Stimuli/eomu.png,,,,j,0,1.55675,,12,0,12,0,1,,,,,,,conf_face,,,,,,,,,,,,,,,,,,,,,,,,,,DP,2,2,2020-11-16_09h33.10.896,configural_featural,2020.2.4,Linux x86_64,60,1920,1080,,0,-0.19509888,0,Stimuli/edmd.png,Stimuli/eumu.png,,,,j,1,0.723675,,13,0,13,0,1,,,,,,,conf_face,,,,,,,,,,,,,,,,,,,,,,,,,,DP,2,2,2020-11-16_09h33.10.896,configural_featural,2020.2.4,Linux x86_64,60,1920,1080,,0,0.19509888,1,Stimuli/eomu.png,Stimuli/eomu.png,,,,f,1,0.84574,,14,0,14,0,1,,,,,,,conf_face,,,,,,,,,,,,,,,,,,,,,,,,,,DP,2,2,2020-11-16_09h33.10.896,configural_featural,2020.2.4,Linux x86_64,60,1920,1080,,1,-0.19509888,1,Stimuli/edmd.png,Stimuli/edmd.png,,,,f,1,0.9916,space,15,0,15,0,1,0.348265,,,,,,conf_face,,,,,,,,,,,,,,,,,,,,,,,,,,DP,2,2,2020-11-16_09h33.10.896,configural_featural,2020.2.4,Linux x86_64,60,1920,1080,,0,0.19509888,0,Stimuli/eimd.png,Stimuli/eumu.png,,,,j,1,0.71567,,16,0,16,0,1,,,,,,,conf_face,,,,,,,,,,,,,,,,,,,,,,,,,,DP,2,2,2020-11-16_09h33.10.896,configural_featural,2020.2.4,Linux x86_64,60,1920,1080,,1,0.19509888,0,Stimuli/eomu.png,Stimuli/edmd.png,,,,j,1,2.37631,space,17,0,17,0,1,1.076955,,,,,,conf_face,,,,,,,,,,,,,,,,,,,,,,,,,,DP,2,2,2020-11-16_09h33.10.896,configural_featural,2020.2.4,Linux x86_64,60,1920,1080,,0,0.19509888,0,Stimuli/eimd.png,Stimuli/eomu.png,,,,j,1,1.03954,,18,0,18,0,1,,,,,,,conf_face,,,,,,,,,,,,,,,,,,,,,,,,,,DP,2,2,2020-11-16_09h33.10.896,configural_featural,2020.2.4,Linux x86_64,60,1920,1080,,0,0.19509888,1,Stimuli/edmd.png,Stimuli/edmd.png,,,,f,1,1.44212,,19,0,19,0,1,,,,,,,conf_face,,,,,,,,,,,,,,,,,,,,,,,,,,DP,2,2,2020-11-16_09h33.10.896,configural_featural,2020.2.4,Linux x86_64,60,1920,1080,,0,0.19509888,1,Stimuli/edmd.png,Stimuli/edmd.png,,,,j,0,2.75661,,20,0,20,0,1,,,,,,,conf_face,,,,,,,,,,,,,,,,,,,,,,,,,,DP,2,2,2020-11-16_09h33.10.896,configural_featural,2020.2.4,Linux x86_64,60,1920,1080,,0,-0.19509888,1,Stimuli/eimd.png,Stimuli/eimd.png,,,,j,0,1.79446,,21,0,21,0,1,,,,,,,conf_face,,,,,,,,,,,,,,,,,,,,,,,,,,DP,2,2,2020-11-16_09h33.10.896,configural_featural,2020.2.4,Linux x86_64,60,1920,1080,,0,0.19509888,0,Stimuli/eimd.png,Stimuli/edmd.png,,,,f,0,1.34108,,22,0,22,0,1,,,,,,,conf_face,,,,,,,,,,,,,,,,,,,,,,,,,,DP,2,2,2020-11-16_09h33.10.896,configural_featural,2020.2.4,Linux x86_64,60,1920,1080,,0,-0.19509888,0,Stimuli/eumu.png,Stimuli/eimd.png,,,,f,0,0.66434,,23,0,23,0,1,,,,,,,conf_face,,,,,,,,,,,,,,,,,,,,,,,,,,DP,2,2,2020-11-16_09h33.10.896,configural_featural,2020.2.4,Linux x86_64,60,1920,1080,,1,-0.19509888,0,Stimuli/eimd.png,Stimuli/edmd.png,,,,f,0,0.861785,space,24,0,24,0,1,0.44745,,,,,,conf_face,,,,,,,,,,,,,,,,,,,,,,,,,,DP,2,2,2020-11-16_09h33.10.896,configural_featural,2020.2.4,Linux x86_64,60,1920,1080,,0,-0.19509888,0,Stimuli/eimd.png,Stimuli/eomu.png,,,,j,1,0.49135,,25,0,25,0,1,,,,,,,conf_face,,,,,,,,,,,,,,,,,,,,,,,,,,DP,2,2,2020-11-16_09h33.10.896,configural_featural,2020.2.4,Linux x86_64,60,1920,1080,,0,0.19509888,1,Stimuli/eomu.png,Stimuli/eomu.png,,,,j,0,1.056605,,26,0,26,0,1,,,,,,,conf_face,,,,,,,,,,,,,,,,,,,,,,,,,,DP,2,2,2020-11-16_09h33.10.896,configural_featural,2020.2.4,Linux x86_64,60,1920,1080,,1,0.19509888,1,Stimuli/eimd.png,Stimuli/eimd.png,,,,f,1,0.89023,space,27,0,27,0,1,0.357105,,,,,,conf_face,,,,,,,,,,,,,,,,,,,,,,,,,,DP,2,2,2020-11-16_09h33.10.896,configural_featural,2020.2.4,Linux x86_64,60,1920,1080,,0,-0.19509888,1,Stimuli/eumu.png,Stimuli/eumu.png,,,,f,1,1.030905,,28,0,28,0,1,,,,,,,conf_face,,,,,,,,,,,,,,,,,,,,,,,,,,DP,2,2,2020-11-16_09h33.10.896,configural_featural,2020.2.4,Linux x86_64,60,1920,1080,,0,0.19509888,0,Stimuli/edmd.png,Stimuli/eomu.png,,,,j,1,0.660025,,29,0,29,0,1,,,,,,,conf_face,,,,,,,,,,,,,,,,,,,,,,,,,,DP,2,2,2020-11-16_09h33.10.896,configural_featural,2020.2.4,Linux x86_64,60,1920,1080,,0,0.19509888,1,Stimuli/eumu.png,Stimuli/eumu.png,,,,j,0,2.57358,,30,0,30,0,1,,,,,,,conf_face,,,,,,,,,,,,,,,,,,,,,,,,,,DP,2,2,2020-11-16_09h33.10.896,configural_featural,2020.2.4,Linux x86_64,60,1920,1080,,0,0.19509888,0,Stimuli/edmd.png,Stimuli/eumu.png,,,,j,1,0.694025,,31,0,31,0,1,,,,,,,conf_face,,,,,,,,,,,,,,,,,,,,,,,,,,DP,2,2,2020-11-16_09h33.10.896,configural_featural,2020.2.4,Linux x86_64,60,1920,1080,,0,-0.19509888,0,Stimuli/eomu.png,Stimuli/edmd.png,,,,f,0,1.32812,,32,0,32,0,1,,,,,,,conf_face,,,,,,,,,,,,,,,,,,,,,,,,,,DP,2,2,2020-11-16_09h33.10.896,configural_featural,2020.2.4,Linux x86_64,60,1920,1080,,0,0.19509888,0,Stimuli/edmd.png,Stimuli/eimd.png,,,,j,1,1.274575,,33,0,33,0,1,,,,,,,conf_face,,,,,,,,,,,,,,,,,,,,,,,,,,DP,2,2,2020-11-16_09h33.10.896,configural_featural,2020.2.4,Linux x86_64,60,1920,1080,,0,0.19509888,1,Stimuli/edmd.png,Stimuli/edmd.png,,,,j,0,0.791275,,34,0,34,0,1,,,,,,,conf_face,,,,,,,,,,,,,,,,,,,,,,,,,,DP,2,2,2020-11-16_09h33.10.896,configural_featural,2020.2.4,Linux x86_64,60,1920,1080,,0,-0.19509888,1,Stimuli/eimd.png,Stimuli/eimd.png,,,,f,1,1.3818,,35,0,35,0,1,,,,,,,conf_face,,,,,,,,,,,,,,,,,,,,,,,,,,DP,2,2,2020-11-16_09h33.10.896,configural_featural,2020.2.4,Linux x86_64,60,1920,1080,,0,-0.19509888,1,Stimuli/edmd.png,Stimuli/edmd.png,,,,f,1,1.290735,,36,0,36,0,1,,,,,,,conf_face,,,,,,,,,,,,,,,,,,,,,,,,,,DP,2,2,2020-11-16_09h33.10.896,configural_featural,2020.2.4,Linux x86_64,60,1920,1080,,0,-0.19509888,1,Stimuli/eumu.png,Stimuli/eumu.png,,,,f,1,4.10824,,37,0,37,0,1,,,,,,,conf_face,,,,,,,,,,,,,,,,,,,,,,,,,,DP,2,2,2020-11-16_09h33.10.896,configural_featural,2020.2.4,Linux x86_64,60,1920,1080,,0,0.19509888,0,Stimuli/eumu.png,Stimuli/eomu.png,,,,j,1,1.075275,,38,0,38,0,1,,,,,,,conf_face,,,,,,,,,,,,,,,,,,,,,,,,,,DP,2,2,2020-11-16_09h33.10.896,configural_featural,2020.2.4,Linux x86_64,60,1920,1080,,0,0.19509888,0,Stimuli/eomu.png,Stimuli/eimd.png,,,,j,1,0.481065,,39,0,39,0,1,,,,,,,conf_face,,,,,,,,,,,,,,,,,,,,,,,,,,DP,2,2,2020-11-16_09h33.10.896,configural_featural,2020.2.4,Linux x86_64,60,1920,1080,,0,0.19509888,0,Stimuli/eumu.png,Stimuli/eimd.png,,,,j,1,0.64113,,40,0,40,0,1,,,,,,,conf_face,,,,,,,,,,,,,,,,,,,,,,,,,,DP,2,2,2020-11-16_09h33.10.896,configural_featural,2020.2.4,Linux x86_64,60,1920,1080,,0,0.19509888,1,Stimuli/eimd.png,Stimuli/eimd.png,,,,f,1,1.16382,,41,0,41,0,1,,,,,,,conf_face,,,,,,,,,,,,,,,,,,,,,,,,,,DP,2,2,2020-11-16_09h33.10.896,configural_featural,2020.2.4,Linux x86_64,60,1920,1080,,1,0.19509888,1,Stimuli/eomu.png,Stimuli/eomu.png,,,,j,0,0.84775,space,42,0,42,0,1,0.507475,,,,,,conf_face,,,,,,,,,,,,,,,,,,,,,,,,,,DP,2,2,2020-11-16_09h33.10.896,configural_featural,2020.2.4,Linux x86_64,60,1920,1080,,0,-0.19509888,0,Stimuli/eomu.png,Stimuli/eimd.png,,,,j,1,0.880765,,43,0,43,0,1,,,,,,,conf_face,,,,,,,,,,,,,,,,,,,,,,,,,,DP,2,2,2020-11-16_09h33.10.896,configural_featural,2020.2.4,Linux x86_64,60,1920,1080,,0,0.19509888,1,Stimuli/eumu.png,Stimuli/eumu.png,,,,j,0,0.64361,,44,0,44,0,1,,,,,,,conf_face,,,,,,,,,,,,,,,,,,,,,,,,,,DP,2,2,2020-11-16_09h33.10.896,configural_featural,2020.2.4,Linux x86_64,60,1920,1080,,0,-0.19509888,0,Stimuli/eumu.png,Stimuli/edmd.png,,,,f,0,0.780845,,45,0,45,0,1,,,,,,,conf_face,,,,,,,,,,,,,,,,,,,,,,,,,,DP,2,2,2020-11-16_09h33.10.896,configural_featural,2020.2.4,Linux x86_64,60,1920,1080,,0,-0.19509888,0,Stimuli/eomu.png,Stimuli/eumu.png,,,,j,1,1.008825,,46,0,46,0,1,,,,,,,conf_face,,,,,,,,,,,,,,,,,,,,,,,,,,DP,2,2,2020-11-16_09h33.10.896,configural_featural,2020.2.4,Linux x86_64,60,1920,1080,,0,-0.19509888,1,Stimuli/eomu.png,Stimuli/eomu.png,,,,f,1,0.777695,,47,0,47,0,1,,,,,,,conf_face,,,,,,,,,,,,,,,,,,,,,,,,,,DP,2,2,2020-11-16_09h33.10.896,configural_featural,2020.2.4,Linux x86_64,60,1920,1080,,,,,,,,,,,,,,,,,,,,1,2,6,2,1,conf_face,Designs/instructions_face_1234.png,,,,,,,,,,,,,,,,,,,,,,,,,DP,2,2,2020-11-16_09h33.10.896,configural_featural,2020.2.4,Linux x86_64,60,1920,1080,,0,0.19509888,0,Stimuli/H-8sim1.png,Stimuli/H-8sim3.png,,,,f,0,2.69115,,0,0,0,0,1,,,,,,,conf_haus,,,,,,,,,,,,,,,,,,,,,,,,,,DP,2,2,2020-11-16_09h33.10.896,configural_featural,2020.2.4,Linux x86_64,60,1920,1080,,0,-0.19509888,1,Stimuli/H-8sim2.png,Stimuli/H-8sim2.png,,,,f,1,1.45907,,1,0,1,0,1,,,,,,,conf_haus,,,,,,,,,,,,,,,,,,,,,,,,,,DP,2,2,2020-11-16_09h33.10.896,configural_featural,2020.2.4,Linux x86_64,60,1920,1080,,1,-0.19509888,1,Stimuli/H-8sim1.png,Stimuli/H-8sim1.png,,,,f,1,0.82871,space,2,0,2,0,1,0.34932,,,,,,conf_haus,,,,,,,,,,,,,,,,,,,,,,,,,,DP,2,2,2020-11-16_09h33.10.896,configural_featural,2020.2.4,Linux x86_64,60,1920,1080,,0,0.19509888,0,Stimuli/H-8sim1.png,Stimuli/H-8sim2.png,,,,f,0,1.057335,,3,0,3,0,1,,,,,,,conf_haus,,,,,,,,,,,,,,,,,,,,,,,,,,DP,2,2,2020-11-16_09h33.10.896,configural_featural,2020.2.4,Linux x86_64,60,1920,1080,,0,-0.19509888,1,Stimuli/H-8sim3.png,Stimuli/H-8sim3.png,,,,j,0,1.260975,,4,0,4,0,1,,,,,,,conf_haus,,,,,,,,,,,,,,,,,,,,,,,,,,DP,2,2,2020-11-16_09h33.10.896,configural_featural,2020.2.4,Linux x86_64,60,1920,1080,,0,0.19509888,0,Stimuli/H-8sim0.png,Stimuli/H-8sim3.png,,,,j,1,1.44941,,5,0,5,0,1,,,,,,,conf_haus,,,,,,,,,,,,,,,,,,,,,,,,,,DP,2,2,2020-11-16_09h33.10.896,configural_featural,2020.2.4,Linux x86_64,60,1920,1080,,0,0.19509888,0,Stimuli/H-8sim3.png,Stimuli/H-8sim1.png,,,,j,1,0.975995,,6,0,6,0,1,,,,,,,conf_haus,,,,,,,,,,,,,,,,,,,,,,,,,,DP,2,2,2020-11-16_09h33.10.896,configural_featural,2020.2.4,Linux x86_64,60,1920,1080,,0,-0.19509888,1,Stimuli/H-8sim0.png,Stimuli/H-8sim0.png,,,,f,1,0.839425,,7,0,7,0,1,,,,,,,conf_haus,,,,,,,,,,,,,,,,,,,,,,,,,,DP,2,2,2020-11-16_09h33.10.896,configural_featural,2020.2.4,Linux x86_64,60,1920,1080,,0,0.19509888,1,Stimuli/H-8sim2.png,Stimuli/H-8sim2.png,,,,j,0,1.29045,,8,0,8,0,1,,,,,,,conf_haus,,,,,,,,,,,,,,,,,,,,,,,,,,DP,2,2,2020-11-16_09h33.10.896,configural_featural,2020.2.4,Linux x86_64,60,1920,1080,,0,-0.19509888,1,Stimuli/H-8sim2.png,Stimuli/H-8sim2.png,,,,f,1,3.50859,,9,0,9,0,1,,,,,,,conf_haus,,,,,,,,,,,,,,,,,,,,,,,,,,DP,2,2,2020-11-16_09h33.10.896,configural_featural,2020.2.4,Linux x86_64,60,1920,1080,,0,-0.19509888,0,Stimuli/H-8sim3.png,Stimuli/H-8sim2.png,,,,j,1,0.62972,,10,0,10,0,1,,,,,,,conf_haus,,,,,,,,,,,,,,,,,,,,,,,,,,DP,2,2,2020-11-16_09h33.10.896,configural_featural,2020.2.4,Linux x86_64,60,1920,1080,,0,0.19509888,0,Stimuli/H-8sim2.png,Stimuli/H-8sim0.png,,,,j,1,1.381975,,11,0,11,0,1,,,,,,,conf_haus,,,,,,,,,,,,,,,,,,,,,,,,,,DP,2,2,2020-11-16_09h33.10.896,configural_featural,2020.2.4,Linux x86_64,60,1920,1080,,0,0.19509888,1,Stimuli/H-8sim3.png,Stimuli/H-8sim3.png,,,,f,1,0.744705,,12,0,12,0,1,,,,,,,conf_haus,,,,,,,,,,,,,,,,,,,,,,,,,,DP,2,2,2020-11-16_09h33.10.896,configural_featural,2020.2.4,Linux x86_64,60,1920,1080,,0,0.19509888,0,Stimuli/H-8sim0.png,Stimuli/H-8sim2.png,,,,j,1,1.1623,,13,0,13,0,1,,,,,,,conf_haus,,,,,,,,,,,,,,,,,,,,,,,,,,DP,2,2,2020-11-16_09h33.10.896,configural_featural,2020.2.4,Linux x86_64,60,1920,1080,,0,-0.19509888,0,Stimuli/H-8sim3.png,Stimuli/H-8sim0.png,,,,j,1,0.86188,,14,0,14,0,1,,,,,,,conf_haus,,,,,,,,,,,,,,,,,,,,,,,,,,DP,2,2,2020-11-16_09h33.10.896,configural_featural,2020.2.4,Linux x86_64,60,1920,1080,,0,0.19509888,1,Stimuli/H-8sim1.png,Stimuli/H-8sim1.png,,,,j,0,0.84151,,15,0,15,0,1,,,,,,,conf_haus,,,,,,,,,,,,,,,,,,,,,,,,,,DP,2,2,2020-11-16_09h33.10.896,configural_featural,2020.2.4,Linux x86_64,60,1920,1080,,1,0.19509888,0,Stimuli/H-8sim1.png,Stimuli/H-8sim0.png,,,,f,0,0.873525,space,16,0,16,0,1,0.48061,,,,,,conf_haus,,,,,,,,,,,,,,,,,,,,,,,,,,DP,2,2,2020-11-16_09h33.10.896,configural_featural,2020.2.4,Linux x86_64,60,1920,1080,,0,0.19509888,1,Stimuli/H-8sim0.png,Stimuli/H-8sim0.png,,,,f,1,1.29062,,17,0,17,0,1,,,,,,,conf_haus,,,,,,,,,,,,,,,,,,,,,,,,,,DP,2,2,2020-11-16_09h33.10.896,configural_featural,2020.2.4,Linux x86_64,60,1920,1080,,0,0.19509888,0,Stimuli/H-8sim2.png,Stimuli/H-8sim1.png,,,,j,1,0.69077,,18,0,18,0,1,,,,,,,conf_haus,,,,,,,,,,,,,,,,,,,,,,,,,,DP,2,2,2020-11-16_09h33.10.896,configural_featural,2020.2.4,Linux x86_64,60,1920,1080,,1,0.19509888,1,Stimuli/H-8sim0.png,Stimuli/H-8sim0.png,,,,f,1,0.84031,space,19,0,19,0,1,0.40896,,,,,,conf_haus,,,,,,,,,,,,,,,,,,,,,,,,,,DP,2,2,2020-11-16_09h33.10.896,configural_featural,2020.2.4,Linux x86_64,60,1920,1080,,0,-0.19509888,0,Stimuli/H-8sim2.png,Stimuli/H-8sim3.png,,,,j,1,0.8253,,20,0,20,0,1,,,,,,,conf_haus,,,,,,,,,,,,,,,,,,,,,,,,,,DP,2,2,2020-11-16_09h33.10.896,configural_featural,2020.2.4,Linux x86_64,60,1920,1080,,0,0.19509888,1,Stimuli/H-8sim2.png,Stimuli/H-8sim2.png,,,,f,1,1.491085,,21,0,21,0,1,,,,,,,conf_haus,,,,,,,,,,,,,,,,,,,,,,,,,,DP,2,2,2020-11-16_09h33.10.896,configural_featural,2020.2.4,Linux x86_64,60,1920,1080,,0,-0.19509888,1,Stimuli/H-8sim3.png,Stimuli/H-8sim3.png,,,,f,1,2.411725,,22,0,22,0,1,,,,,,,conf_haus,,,,,,,,,,,,,,,,,,,,,,,,,,DP,2,2,2020-11-16_09h33.10.896,configural_featural,2020.2.4,Linux x86_64,60,1920,1080,,0,-0.19509888,0,Stimuli/H-8sim1.png,Stimuli/H-8sim0.png,,,,j,1,1.008065,,23,0,23,0,1,,,,,,,conf_haus,,,,,,,,,,,,,,,,,,,,,,,,,,DP,2,2,2020-11-16_09h33.10.896,configural_featural,2020.2.4,Linux x86_64,60,1920,1080,,0,0.19509888,1,Stimuli/H-8sim1.png,Stimuli/H-8sim1.png,,,,j,0,2.615125,,24,0,24,0,1,,,,,,,conf_haus,,,,,,,,,,,,,,,,,,,,,,,,,,DP,2,2,2020-11-16_09h33.10.896,configural_featural,2020.2.4,Linux x86_64,60,1920,1080,,0,0.19509888,1,Stimuli/H-8sim3.png,Stimuli/H-8sim3.png,,,,f,1,1.62368,,25,0,25,0,1,,,,,,,conf_haus,,,,,,,,,,,,,,,,,,,,,,,,,,DP,2,2,2020-11-16_09h33.10.896,configural_featural,2020.2.4,Linux x86_64,60,1920,1080,,0,-0.19509888,0,Stimuli/H-8sim0.png,Stimuli/H-8sim1.png,,,,j,1,0.75953,,26,0,26,0,1,,,,,,,conf_haus,,,,,,,,,,,,,,,,,,,,,,,,,,DP,2,2,2020-11-16_09h33.10.896,configural_featural,2020.2.4,Linux x86_64,60,1920,1080,,0,-0.19509888,0,Stimuli/H-8sim1.png,Stimuli/H-8sim2.png,,,,f,0,1.19084,,27,0,27,0,1,,,,,,,conf_haus,,,,,,,,,,,,,,,,,,,,,,,,,,DP,2,2,2020-11-16_09h33.10.896,configural_featural,2020.2.4,Linux x86_64,60,1920,1080,,0,-0.19509888,0,Stimuli/H-8sim2.png,Stimuli/H-8sim0.png,,,,j,1,0.964145,,28,0,28,0,1,,,,,,,conf_haus,,,,,,,,,,,,,,,,,,,,,,,,,,DP,2,2,2020-11-16_09h33.10.896,configural_featural,2020.2.4,Linux x86_64,60,1920,1080,,0,0.19509888,1,Stimuli/H-8sim2.png,Stimuli/H-8sim2.png,,,,f,1,2.424015,,29,0,29,0,1,,,,,,,conf_haus,,,,,,,,,,,,,,,,,,,,,,,,,,DP,2,2,2020-11-16_09h33.10.896,configural_featural,2020.2.4,Linux x86_64,60,1920,1080,,0,0.19509888,1,Stimuli/H-8sim0.png,Stimuli/H-8sim0.png,,,,f,1,1.824045,,30,0,30,0,1,,,,,,,conf_haus,,,,,,,,,,,,,,,,,,,,,,,,,,DP,2,2,2020-11-16_09h33.10.896,configural_featural,2020.2.4,Linux x86_64,60,1920,1080,,0,-0.19509888,0,Stimuli/H-8sim2.png,Stimuli/H-8sim1.png,,,,f,0,1.409485,,31,0,31,0,1,,,,,,,conf_haus,,,,,,,,,,,,,,,,,,,,,,,,,,DP,2,2,2020-11-16_09h33.10.896,configural_featural,2020.2.4,Linux x86_64,60,1920,1080,,0,-0.19509888,0,Stimuli/H-8sim0.png,Stimuli/H-8sim2.png,,,,j,1,0.890625,,32,0,32,0,1,,,,,,,conf_haus,,,,,,,,,,,,,,,,,,,,,,,,,,DP,2,2,2020-11-16_09h33.10.896,configural_featural,2020.2.4,Linux x86_64,60,1920,1080,,1,-0.19509888,1,Stimuli/H-8sim1.png,Stimuli/H-8sim1.png,,,,f,1,0.92546,space,33,0,33,0,1,0.52912,,,,,,conf_haus,,,,,,,,,,,,,,,,,,,,,,,,,,DP,2,2,2020-11-16_09h33.10.896,configural_featural,2020.2.4,Linux x86_64,60,1920,1080,,0,0.19509888,1,Stimuli/H-8sim1.png,Stimuli/H-8sim1.png,,,,f,1,1.61418,,34,0,34,0,1,,,,,,,conf_haus,,,,,,,,,,,,,,,,,,,,,,,,,,DP,2,2,2020-11-16_09h33.10.896,configural_featural,2020.2.4,Linux x86_64,60,1920,1080,,0,-0.19509888,0,Stimuli/H-8sim1.png,Stimuli/H-8sim3.png,,,,j,1,0.714145,,35,0,35,0,1,,,,,,,conf_haus,,,,,,,,,,,,,,,,,,,,,,,,,,DP,2,2,2020-11-16_09h33.10.896,configural_featural,2020.2.4,Linux x86_64,60,1920,1080,,0,-0.19509888,0,Stimuli/H-8sim3.png,Stimuli/H-8sim1.png,,,,j,1,1.09606,,36,0,36,0,1,,,,,,,conf_haus,,,,,,,,,,,,,,,,,,,,,,,,,,DP,2,2,2020-11-16_09h33.10.896,configural_featural,2020.2.4,Linux x86_64,60,1920,1080,,0,0.19509888,0,Stimuli/H-8sim0.png,Stimuli/H-8sim1.png,,,,j,1,0.898125,,37,0,37,0,1,,,,,,,conf_haus,,,,,,,,,,,,,,,,,,,,,,,,,,DP,2,2,2020-11-16_09h33.10.896,configural_featural,2020.2.4,Linux x86_64,60,1920,1080,,1,-0.19509888,1,Stimuli/H-8sim0.png,Stimuli/H-8sim0.png,,,,f,1,0.846005,space,38,0,38,0,1,0.406565,,,,,,conf_haus,,,,,,,,,,,,,,,,,,,,,,,,,,DP,2,2,2020-11-16_09h33.10.896,configural_featural,2020.2.4,Linux x86_64,60,1920,1080,,1,0.19509888,1,Stimuli/H-8sim3.png,Stimuli/H-8sim3.png,,,,f,1,1.439585,,39,0,39,0,1,,,,,,,conf_haus,,,,,,,,,,,,,,,,,,,,,,,,,,DP,2,2,2020-11-16_09h33.10.896,configural_featural,2020.2.4,Linux x86_64,60,1920,1080,,0,0.19509888,0,Stimuli/H-8sim2.png,Stimuli/H-8sim3.png,,,,j,1,0.54003,,40,0,40,0,1,,,,,,,conf_haus,,,,,,,,,,,,,,,,,,,,,,,,,,DP,2,2,2020-11-16_09h33.10.896,configural_featural,2020.2.4,Linux x86_64,60,1920,1080,,0,-0.19509888,1,Stimuli/H-8sim1.png,Stimuli/H-8sim1.png,,,,f,1,0.69694,,41,0,41,0,1,,,,,,,conf_haus,,,,,,,,,,,,,,,,,,,,,,,,,,DP,2,2,2020-11-16_09h33.10.896,configural_featural,2020.2.4,Linux x86_64,60,1920,1080,,0,-0.19509888,1,Stimuli/H-8sim3.png,Stimuli/H-8sim3.png,,,,f,1,0.889925,,42,0,42,0,1,,,,,,,conf_haus,,,,,,,,,,,,,,,,,,,,,,,,,,DP,2,2,2020-11-16_09h33.10.896,configural_featural,2020.2.4,Linux x86_64,60,1920,1080,,0,-0.19509888,1,Stimuli/H-8sim2.png,Stimuli/H-8sim2.png,,,,j,0,0.595565,,43,0,43,0,1,,,,,,,conf_haus,,,,,,,,,,,,,,,,,,,,,,,,,,DP,2,2,2020-11-16_09h33.10.896,configural_featural,2020.2.4,Linux x86_64,60,1920,1080,,0,-0.19509888,0,Stimuli/H-8sim0.png,Stimuli/H-8sim3.png,,,,j,1,0.76211,,44,0,44,0,1,,,,,,,conf_haus,,,,,,,,,,,,,,,,,,,,,,,,,,DP,2,2,2020-11-16_09h33.10.896,configural_featural,2020.2.4,Linux x86_64,60,1920,1080,,0,0.19509888,0,Stimuli/H-8sim3.png,Stimuli/H-8sim0.png,,,,j,1,0.541455,,45,0,45,0,1,,,,,,,conf_haus,,,,,,,,,,,,,,,,,,,,,,,,,,DP,2,2,2020-11-16_09h33.10.896,configural_featural,2020.2.4,Linux x86_64,60,1920,1080,,0,-0.19509888,1,Stimuli/H-8sim0.png,Stimuli/H-8sim0.png,,,,f,1,0.72559,,46,0,46,0,1,,,,,,,conf_haus,,,,,,,,,,,,,,,,,,,,,,,,,,DP,2,2,2020-11-16_09h33.10.896,configural_featural,2020.2.4,Linux x86_64,60,1920,1080,,0,0.19509888,0,Stimuli/H-8sim3.png,Stimuli/H-8sim2.png,,,,j,1,0.50942,,47,0,47,0,1,,,,,,,conf_haus,,,,,,,,,,,,,,,,,,,,,,,,,,DP,2,2,2020-11-16_09h33.10.896,configural_featural,2020.2.4,Linux x86_64,60,1920,1080,,,,,,,,,,,,,,,,,,,,1,3,7,3,1,conf_haus,Designs/instructions_haus_1234.png