X Scale,Y Scale,key_resp_10.keys,key_resp_10.rt,prePrac1Resp.keys,prePrac1Resp.corr,prePrac1Resp.rt,prePrac2_fixResp.keys,prePrac2_fixResp.corr,prePrac2_imgResp.keys,prePrac2_imgResp.corr,pfix_switches,Pside,ptrial_type1S0D,ptarget,pprobe,prac_resp.keys,prac_resp.corr,prac_fix_resp.keys,prac_fix_resp.corr,pTrials_slow.thisRepN,pTrials_slow.thisTrialN,pTrials_slow.thisN,pTrials_slow.thisIndex,pTrials_slow.ran,participant,design,position,date,expName,psychopyVersion,OS,frameRate,xResolution,yResolution,prac_resp.rt,prac_fix_resp_fast.keys,prac_fix_resp_fast.corr,prac_resp2.keys,prac_resp2.corr,pTrials_fast.thisRepN,pTrials_fast.thisTrialN,pTrials_fast.thisN,pTrials_fast.thisIndex,pTrials_fast.ran,pTrials.thisRepN,pTrials.thisTrialN,pTrials.thisN,pTrials.thisIndex,pTrials.ran,prac_resp2.rt,fix_switches,side,trial_type1S0D,target,probe,block_type,key_resp.keys,key_resp.corr,key_resp.rt,fix_resp.keys,fix_resp.corr,trials.thisRepN,trials.thisTrialN,trials.thisN,trials.thisIndex,trials.ran,fix_resp.rt,blocks.thisRepN,blocks.thisTrialN,blocks.thisN,blocks.thisIndex,blocks.ran,Block_type,instruction_text
0.0638,0.0645,space,63.18996,f,0,40.965045,,0,,0,0,-0.221780734,0,Stimuli/eimd.png,Stimuli/eimd.png,,0,,1,0,0,0,0,1,ho,3,1,2020-11-30_15h05.25.402,configural_featural,2020.2.4,Win32,60,1366,768,,,,,,,,,,,,,,,,,,,,,,,,,,,,,,,,,,,,,,,,
,,,,,,,,,,,1,-0.221780734,1,Stimuli/f24.png,Stimuli/edmd.png,,0,,0,1,0,1,0,1,ho,3,1,2020-11-30_15h05.25.402,configural_featural,2020.2.4,Win32,60,1366,768,,,,,,,,,,,,,,,,,,,,,,,,,,,,,,,,,,,,,,,,
,,,,,,,,,,,0,-0.221780734,0,Stimuli/f15.png,Stimuli/f15.png,f,1,,1,2,0,2,0,1,ho,3,1,2020-11-30_15h05.25.402,configural_featural,2020.2.4,Win32,60,1366,768,2.402325,,,,,,,,,,,,,,,,,,,,,,,,,,,,,,,,,,,,,,,
,,,,,,,,,,,0,-0.221780734,1,Stimuli/f15.png,Stimuli/f142.png,,0,,1,3,0,3,0,1,ho,3,1,2020-11-30_15h05.25.402,configural_featural,2020.2.4,Win32,60,1366,768,,,,,,,,,,,,,,,,,,,,,,,,,,,,,,,,,,,,,,,,
,,,,,,,,,,,0,-0.221780734,0,Stimuli/eomu.png,Stimuli/eomu.png,,,,,,,,,,ho,3,1,2020-11-30_15h05.25.402,configural_featural,2020.2.4,Win32,60,1366,768,,,1,,0,0,0,0,0,1,,,,,,,,,,,,,,,,,,,,,,,,,,,,,,
,,,,,,,,,,,0,-0.221780734,1,Stimuli/eumu.png,Stimuli/f131.png,,,,,,,,,,ho,3,1,2020-11-30_15h05.25.402,configural_featural,2020.2.4,Win32,60,1366,768,,,1,,0,1,0,1,0,1,,,,,,,,,,,,,,,,,,,,,,,,,,,,,,
,,,,,,,,,,,1,-0.221780734,0,Stimuli/f142.png,Stimuli/f142.png,,,,,,,,,,ho,3,1,2020-11-30_15h05.25.402,configural_featural,2020.2.4,Win32,60,1366,768,,,0,,0,2,0,2,0,1,,,,,,,,,,,,,,,,,,,,,,,,,,,,,,
,,,,,,,,,,,0,-0.221780734,1,Stimuli/f142.png,Stimuli/f131.png,,,,,,,,,,ho,3,1,2020-11-30_15h05.25.402,configural_featural,2020.2.4,Win32,60,1366,768,,,1,,0,3,0,3,0,1,,,,,,,,,,,,,,,,,,,,,,,,,,,,,,
,,,,,,,,,,,,,,,,,,,,,,,,,ho,3,1,2020-11-30_15h05.25.402,configural_featural,2020.2.4,Win32,60,1366,768,,,,,,,,,,,0,0,0,0,1,,,,,,,,,,,,,,,,,,,,,,,,,
,,,,,,,,,,,0,-0.221780734,0,Stimuli/H6sim0.png,Stimuli/H6sim0.png,f,1,,1,0,0,0,0,1,ho,3,1,2020-11-30_15h05.25.402,configural_featural,2020.2.4,Win32,60,1366,768,3.72254,,,,,,,,,,,,,,,,,,,,,,,,,,,,,,,,,,,,,,,
,,,,,,,,,,,1,-0.221780734,1,Stimuli/H6sim0.png,Stimuli/H-8sim2.png,j,1,,0,1,0,1,0,1,ho,3,1,2020-11-30_15h05.25.402,configural_featural,2020.2.4,Win32,60,1366,768,2.921895,,,,,,,,,,,,,,,,,,,,,,,,,,,,,,,,,,,,,,,
,,,,,,,,,,,0,-0.221780734,0,Stimuli/H5sim0.png,Stimuli/H5sim0.png,,0,,1,2,0,2,0,1,ho,3,1,2020-11-30_15h05.25.402,configural_featural,2020.2.4,Win32,60,1366,768,,,,,,,,,,,,,,,,,,,,,,,,,,,,,,,,,,,,,,,,
,,,,,,,,,,,0,-0.221780734,1,Stimuli/H-8sim3.png,Stimuli/H-8sim2.png,,0,,1,3,0,3,0,1,ho,3,1,2020-11-30_15h05.25.402,configural_featural,2020.2.4,Win32,60,1366,768,,,,,,,,,,,,,,,,,,,,,,,,,,,,,,,,,,,,,,,,
,,,,,,,,,,,0,-0.221780734,0,Stimuli/H-8sim1.png,Stimuli/H-8sim1.png,,,,,,,,,,ho,3,1,2020-11-30_15h05.25.402,configural_featural,2020.2.4,Win32,60,1366,768,,,1,f,1,0,0,0,0,1,,,,,,3.133915,,,,,,,,,,,,,,,,,,,,,,,,
,,,,,,,,,,,0,-0.221780734,1,Stimuli/H7sim0.png,Stimuli/H-8sim2.png,,,,,,,,,,ho,3,1,2020-11-30_15h05.25.402,configural_featural,2020.2.4,Win32,60,1366,768,,,1,,0,1,0,1,0,1,,,,,,,,,,,,,,,,,,,,,,,,,,,,,,
,,,,,,,,,,,1,-0.221780734,0,Stimuli/H7sim0.png,Stimuli/H7sim0.png,,,,,,,,,,ho,3,1,2020-11-30_15h05.25.402,configural_featural,2020.2.4,Win32,60,1366,768,,,0,,0,2,0,2,0,1,,,,,,,,,,,,,,,,,,,,,,,,,,,,,,
,,,,,,,,,,,0,-0.221780734,1,Stimuli/H7sim0.png,Stimuli/H-8sim3.png,,,,,,,,,,ho,3,1,2020-11-30_15h05.25.402,configural_featural,2020.2.4,Win32,60,1366,768,,,1,,0,3,0,3,0,1,,,,,,,,,,,,,,,,,,,,,,,,,,,,,,
,,,,,,,,,,,,,,,,,,,,,,,,,ho,3,1,2020-11-30_15h05.25.402,configural_featural,2020.2.4,Win32,60,1366,768,,,,,,,,,,,1,0,1,0,1,,,,,,,,,,,,,,,,,,,,,,,,,
,,,,,,,,,,,,,,,,,,,,,,,,,ho,3,1,2020-11-30_15h05.25.402,configural_featural,2020.2.4,Win32,60,1366,768,,,,,,,,,,,,,,,,,0,-0.221780734,0,Stimuli/H-8sim1.png,Stimuli/H-8sim2.png,conf_haus,f,0,6.963765,,1,0,0,0,0,1,,,,,,,,
,,,,,,,,,,,,,,,,,,,,,,,,,ho,3,1,2020-11-30_15h05.25.402,configural_featural,2020.2.4,Win32,60,1366,768,,,,,,,,,,,,,,,,,0,-0.221780734,0,Stimuli/H-8sim2.png,Stimuli/H-8sim1.png,conf_haus,f,0,4.0847,,1,1,0,1,0,1,,,,,,,,
,,,,,,,,,,,,,,,,,,,,,,,,,ho,3,1,2020-11-30_15h05.25.402,configural_featural,2020.2.4,Win32,60,1366,768,,,,,,,,,,,,,,,,,1,-0.221780734,1,Stimuli/H-8sim3.png,Stimuli/H-8sim3.png,conf_haus,j,0,3.89721,,0,2,0,2,0,1,,,,,,,,
,,,,,,,,,,,,,,,,,,,,,,,,,ho,3,1,2020-11-30_15h05.25.402,configural_featural,2020.2.4,Win32,60,1366,768,,,,,,,,,,,,,,,,,0,-0.221780734,1,Stimuli/H-8sim1.png,Stimuli/H-8sim1.png,conf_haus,f,1,22.111685,,1,3,0,3,0,1,,,,,,,,
,,,,,,,,,,,,,,,,,,,,,,,,,ho,3,1,2020-11-30_15h05.25.402,configural_featural,2020.2.4,Win32,60,1366,768,,,,,,,,,,,,,,,,,0,-0.221780734,0,Stimuli/H-8sim3.png,Stimuli/H-8sim1.png,conf_haus,f,0,23.054885,,1,4,0,4,0,1,,,,,,,,
,,,,,,,,,,,,,,,,,,,,,,,,,ho,3,1,2020-11-30_15h05.25.402,configural_featural,2020.2.4,Win32,60,1366,768,,,,,,,,,,,,,,,,,0,-0.221780734,1,Stimuli/H-8sim2.png,Stimuli/H-8sim2.png,conf_haus,j,0,6.345955,,1,5,0,5,0,1,,,,,,,,
,,,,,,,,,,,,,,,,,,,,,,,,,ho,3,1,2020-11-30_15h05.25.402,configural_featural,2020.2.4,Win32,60,1366,768,,,,,,,,,,,,,,,,,0,-0.221780734,0,Stimuli/H-8sim3.png,Stimuli/H-8sim2.png,conf_haus,j,1,14.58649,,1,6,0,6,0,1,,,,,,,,
,,,,,,,,,,,,,,,,,,,,,,,,,ho,3,1,2020-11-30_15h05.25.402,configural_featural,2020.2.4,Win32,60,1366,768,,,,,,,,,,,,,,,,,1,-0.221780734,0,Stimuli/H-8sim3.png,Stimuli/H-8sim0.png,conf_haus,f,0,2.682785,,0,7,0,7,0,1,,,,,,,,
,,,,,,,,,,,,,,,,,,,,,,,,,ho,3,1,2020-11-30_15h05.25.402,configural_featural,2020.2.4,Win32,60,1366,768,,,,,,,,,,,,,,,,,0,-0.221780734,1,Stimuli/H-8sim0.png,Stimuli/H-8sim0.png,conf_haus,f,1,9.584145,,1,8,0,8,0,1,,,,,,,,
,,,,,,,,,,,,,,,,,,,,,,,,,ho,3,1,2020-11-30_15h05.25.402,configural_featural,2020.2.4,Win32,60,1366,768,,,,,,,,,,,,,,,,,1,-0.221780734,0,Stimuli/H-8sim1.png,Stimuli/H-8sim0.png,conf_haus,j,1,5.98023,space,1,9,0,9,0,1,1.56231,,,,,,,
,,,,,,,,,,,,,,,,,,,,,,,,,ho,3,1,2020-11-30_15h05.25.402,configural_featural,2020.2.4,Win32,60,1366,768,,,,,,,,,,,,,,,,,0,-0.221780734,1,Stimuli/H-8sim3.png,Stimuli/H-8sim3.png,conf_haus,f,1,3.445835,,1,10,0,10,0,1,,,,,,,,
,,,,,,,,,,,,,,,,,,,,,,,,,ho,3,1,2020-11-30_15h05.25.402,configural_featural,2020.2.4,Win32,60,1366,768,,,,,,,,,,,,,,,,,0,-0.221780734,1,Stimuli/H-8sim2.png,Stimuli/H-8sim2.png,conf_haus,j,0,2.31363,,1,11,0,11,0,1,,,,,,,,
,,,,,,,,,,,,,,,,,,,,,,,,,ho,3,1,2020-11-30_15h05.25.402,configural_featural,2020.2.4,Win32,60,1366,768,,,,,,,,,,,,,,,,,0,-0.221780734,0,Stimuli/H-8sim2.png,Stimuli/H-8sim0.png,conf_haus,f,0,2.584305,,1,12,0,12,0,1,,,,,,,,
,,,,,,,,,,,,,,,,,,,,,,,,,ho,3,1,2020-11-30_15h05.25.402,configural_featural,2020.2.4,Win32,60,1366,768,,,,,,,,,,,,,,,,,1,-0.221780734,0,Stimuli/H-8sim0.png,Stimuli/H-8sim2.png,conf_haus,j,1,3.664145,space,1,13,0,13,0,1,1.065175,,,,,,,
,,,,,,,,,,,,,,,,,,,,,,,,,ho,3,1,2020-11-30_15h05.25.402,configural_featural,2020.2.4,Win32,60,1366,768,,,,,,,,,,,,,,,,,0,-0.221780734,1,Stimuli/H-8sim0.png,Stimuli/H-8sim0.png,conf_haus,f,1,6.09178,,1,14,0,14,0,1,,,,,,,,
,,,,,,,,,,,,,,,,,,,,,,,,,ho,3,1,2020-11-30_15h05.25.402,configural_featural,2020.2.4,Win32,60,1366,768,,,,,,,,,,,,,,,,,0,-0.221780734,0,Stimuli/H-8sim1.png,Stimuli/H-8sim3.png,conf_haus,j,1,3.049585,,1,15,0,15,0,1,,,,,,,,
,,,,,,,,,,,,,,,,,,,,,,,,,ho,3,1,2020-11-30_15h05.25.402,configural_featural,2020.2.4,Win32,60,1366,768,,,,,,,,,,,,,,,,,1,-0.221780734,1,Stimuli/H-8sim1.png,Stimuli/H-8sim1.png,conf_haus,f,1,3.1813,space,1,16,0,16,0,1,0.797175,,,,,,,
,,,,,,,,,,,,,,,,,,,,,,,,,ho,3,1,2020-11-30_15h05.25.402,configural_featural,2020.2.4,Win32,60,1366,768,,,,,,,,,,,,,,,,,0,-0.221780734,1,Stimuli/H-8sim2.png,Stimuli/H-8sim2.png,conf_haus,f,1,4.913835,,1,17,0,17,0,1,,,,,,,,
,,,,,,,,,,,,,,,,,,,,,,,,,ho,3,1,2020-11-30_15h05.25.402,configural_featural,2020.2.4,Win32,60,1366,768,,,,,,,,,,,,,,,,,0,-0.221780734,0,Stimuli/H-8sim0.png,Stimuli/H-8sim1.png,conf_haus,j,1,3.36973,,1,18,0,18,0,1,,,,,,,,
,,,,,,,,,,,,,,,,,,,,,,,,,ho,3,1,2020-11-30_15h05.25.402,configural_featural,2020.2.4,Win32,60,1366,768,,,,,,,,,,,,,,,,,0,-0.221780734,0,Stimuli/H-8sim2.png,Stimuli/H-8sim3.png,conf_haus,f,0,17.11607,,1,19,0,19,0,1,,,,,,,,
,,,,,,,,,,,,,,,,,,,,,,,,,ho,3,1,2020-11-30_15h05.25.402,configural_featural,2020.2.4,Win32,60,1366,768,,,,,,,,,,,,,,,,,0,-0.221780734,0,Stimuli/H-8sim0.png,Stimuli/H-8sim3.png,conf_haus,j,1,2.739175,,1,20,0,20,0,1,,,,,,,,
,,,,,,,,,,,,,,,,,,,,,,,,,ho,3,1,2020-11-30_15h05.25.402,configural_featural,2020.2.4,Win32,60,1366,768,,,,,,,,,,,,,,,,,1,-0.221780734,1,Stimuli/H-8sim3.png,Stimuli/H-8sim3.png,conf_haus,f,1,1.46661,,0,21,0,21,0,1,,,,,,,,
,,,,,,,,,,,,,,,,,,,,,,,,,ho,3,1,2020-11-30_15h05.25.402,configural_featural,2020.2.4,Win32,60,1366,768,,,,,,,,,,,,,,,,,0,-0.221780734,1,Stimuli/H-8sim0.png,Stimuli/H-8sim0.png,conf_haus,j,0,6.26546,,1,22,0,22,0,1,,,,,,,,
,,,,,,,,,,,,,,,,,,,,,,,,,ho,3,1,2020-11-30_15h05.25.402,configural_featural,2020.2.4,Win32,60,1366,768,,,,,,,,,,,,,,,,,0,-0.221780734,1,Stimuli/H-8sim1.png,Stimuli/H-8sim1.png,conf_haus,f,1,3.931495,,1,23,0,23,0,1,,,,,,,,
,,,,,,,,,,,,,,,,,,,,,,,,,ho,3,1,2020-11-30_15h05.25.402,configural_featural,2020.2.4,Win32,60,1366,768,,,,,,,,,,,,,,,,,,,,,,,,,,,,,,,,,,0,0,0,0,1,conf_haus,Designs/instructions_haus_1234.png
,,,,,,,,,,,,,,,,,,,,,,,,,ho,3,1,2020-11-30_15h05.25.402,configural_featural,2020.2.4,Win32,60,1366,768,,,,,,,,,,,,,,,,,0,-0.221780734,0,Stimuli/eomu.png,Stimuli/eumu.png,conf_face,f,0,5.943755,,1,0,0,0,0,1,,,,,,,,
,,,,,,,,,,,,,,,,,,,,,,,,,ho,3,1,2020-11-30_15h05.25.402,configural_featural,2020.2.4,Win32,60,1366,768,,,,,,,,,,,,,,,,,0,-0.221780734,1,Stimuli/eomu.png,Stimuli/eomu.png,conf_face,f,1,2.824825,,1,1,0,1,0,1,,,,,,,,
,,,,,,,,,,,,,,,,,,,,,,,,,ho,3,1,2020-11-30_15h05.25.402,configural_featural,2020.2.4,Win32,60,1366,768,,,,,,,,,,,,,,,,,1,-0.221780734,1,Stimuli/eimd.png,Stimuli/eimd.png,conf_face,j,0,1.872225,space,1,2,0,2,0,1,0.78554,,,,,,,
,,,,,,,,,,,,,,,,,,,,,,,,,ho,3,1,2020-11-30_15h05.25.402,configural_featural,2020.2.4,Win32,60,1366,768,,,,,,,,,,,,,,,,,0,-0.221780734,1,Stimuli/eumu.png,Stimuli/eumu.png,conf_face,f,1,5.898625,,1,3,0,3,0,1,,,,,,,,
,,,,,,,,,,,,,,,,,,,,,,,,,ho,3,1,2020-11-30_15h05.25.402,configural_featural,2020.2.4,Win32,60,1366,768,,,,,,,,,,,,,,,,,0,-0.221780734,0,Stimuli/eomu.png,Stimuli/edmd.png,conf_face,f,0,2.88181,,1,4,0,4,0,1,,,,,,,,
,,,,,,,,,,,,,,,,,,,,,,,,,ho,3,1,2020-11-30_15h05.25.402,configural_featural,2020.2.4,Win32,60,1366,768,,,,,,,,,,,,,,,,,0,-0.221780734,0,Stimuli/eumu.png,Stimuli/edmd.png,conf_face,j,1,2.891675,,1,5,0,5,0,1,,,,,,,,
,,,,,,,,,,,,,,,,,,,,,,,,,ho,3,1,2020-11-30_15h05.25.402,configural_featural,2020.2.4,Win32,60,1366,768,,,,,,,,,,,,,,,,,0,-0.221780734,1,Stimuli/edmd.png,Stimuli/edmd.png,conf_face,f,1,4.232685,,1,6,0,6,0,1,,,,,,,,
,,,,,,,,,,,,,,,,,,,,,,,,,ho,3,1,2020-11-30_15h05.25.402,configural_featural,2020.2.4,Win32,60,1366,768,,,,,,,,,,,,,,,,,1,-0.221780734,1,Stimuli/eumu.png,Stimuli/eumu.png,conf_face,j,0,2.708085,,0,7,0,7,0,1,,,,,,,,
,,,,,,,,,,,,,,,,,,,,,,,,,ho,3,1,2020-11-30_15h05.25.402,configural_featural,2020.2.4,Win32,60,1366,768,,,,,,,,,,,,,,,,,0,-0.221780734,0,Stimuli/edmd.png,Stimuli/eumu.png,conf_face,f,0,1.72598,,1,8,0,8,0,1,,,,,,,,
,,,,,,,,,,,,,,,,,,,,,,,,,ho,3,1,2020-11-30_15h05.25.402,configural_featural,2020.2.4,Win32,60,1366,768,,,,,,,,,,,,,,,,,0,-0.221780734,0,Stimuli/eimd.png,Stimuli/eumu.png,conf_face,f,0,3.390065,,1,9,0,9,0,1,,,,,,,,
,,,,,,,,,,,,,,,,,,,,,,,,,ho,3,1,2020-11-30_15h05.25.402,configural_featural,2020.2.4,Win32,60,1366,768,,,,,,,,,,,,,,,,,1,-0.221780734,0,Stimuli/edmd.png,Stimuli/eomu.png,conf_face,j,1,7.747685,space,1,10,0,10,0,1,0.80119,,,,,,,
,,,,,,,,,,,,,,,,,,,,,,,,,ho,3,1,2020-11-30_15h05.25.402,configural_featural,2020.2.4,Win32,60,1366,768,,,,,,,,,,,,,,,,,0,-0.221780734,1,Stimuli/edmd.png,Stimuli/edmd.png,conf_face,f,1,7.42824,,1,11,0,11,0,1,,,,,,,,
,,,,,,,,,,,,,,,,,,,,,,,,,ho,3,1,2020-11-30_15h05.25.402,configural_featural,2020.2.4,Win32,60,1366,768,,,,,,,,,,,,,,,,,0,-0.221780734,0,Stimuli/edmd.png,Stimuli/eimd.png,conf_face,j,1,6.93393,,1,12,0,12,0,1,,,,,,,,
,,,,,,,,,,,,,,,,,,,,,,,,,ho,3,1,2020-11-30_15h05.25.402,configural_featural,2020.2.4,Win32,60,1366,768,,,,,,,,,,,,,,,,,1,-0.221780734,1,Stimuli/eomu.png,Stimuli/eomu.png,conf_face,f,1,14.949005,,0,13,0,13,0,1,,,,,,,,
,,,,,,,,,,,,,,,,,,,,,,,,,ho,3,1,2020-11-30_15h05.25.402,configural_featural,2020.2.4,Win32,60,1366,768,,,,,,,,,,,,,,,,,0,-0.221780734,0,Stimuli/eumu.png,Stimuli/eomu.png,conf_face,j,1,2.921365,,1,14,0,14,0,1,,,,,,,,
,,,,,,,,,,,,,,,,,,,,,,,,,ho,3,1,2020-11-30_15h05.25.402,configural_featural,2020.2.4,Win32,60,1366,768,,,,,,,,,,,,,,,,,0,-0.221780734,1,Stimuli/eimd.png,Stimuli/eimd.png,conf_face,f,1,3.8985,,1,15,0,15,0,1,,,,,,,,
,,,,,,,,,,,,,,,,,,,,,,,,,ho,3,1,2020-11-30_15h05.25.402,configural_featural,2020.2.4,Win32,60,1366,768,,,,,,,,,,,,,,,,,0,-0.221780734,1,Stimuli/edmd.png,Stimuli/edmd.png,conf_face,j,0,2.56841,,1,16,0,16,0,1,,,,,,,,
,,,,,,,,,,,,,,,,,,,,,,,,,ho,3,1,2020-11-30_15h05.25.402,configural_featural,2020.2.4,Win32,60,1366,768,,,,,,,,,,,,,,,,,0,-0.221780734,0,Stimuli/eomu.png,Stimuli/eimd.png,conf_face,f,0,1.68753,,1,17,0,17,0,1,,,,,,,,
,,,,,,,,,,,,,,,,,,,,,,,,,ho,3,1,2020-11-30_15h05.25.402,configural_featural,2020.2.4,Win32,60,1366,768,,,,,,,,,,,,,,,,,1,-0.221780734,0,Stimuli/eimd.png,Stimuli/edmd.png,conf_face,j,1,3.023975,,0,18,0,18,0,1,,,,,,,,
,,,,,,,,,,,,,,,,,,,,,,,,,ho,3,1,2020-11-30_15h05.25.402,configural_featural,2020.2.4,Win32,60,1366,768,,,,,,,,,,,,,,,,,0,-0.221780734,1,Stimuli/eomu.png,Stimuli/eomu.png,conf_face,f,1,3.101705,,1,19,0,19,0,1,,,,,,,,
,,,,,,,,,,,,,,,,,,,,,,,,,ho,3,1,2020-11-30_15h05.25.402,configural_featural,2020.2.4,Win32,60,1366,768,,,,,,,,,,,,,,,,,1,-0.221780734,1,Stimuli/eimd.png,Stimuli/eimd.png,conf_face,j,0,2.400055,,0,20,0,20,0,1,,,,,,,,
,,,,,,,,,,,,,,,,,,,,,,,,,ho,3,1,2020-11-30_15h05.25.402,configural_featural,2020.2.4,Win32,60,1366,768,,,,,,,,,,,,,,,,,0,-0.221780734,1,Stimuli/eumu.png,Stimuli/eumu.png,conf_face,f,1,6.647525,space,0,21,0,21,0,1,1.01597,,,,,,,
,,,,,,,,,,,,,,,,,,,,,,,,,ho,3,1,2020-11-30_15h05.25.402,configural_featural,2020.2.4,Win32,60,1366,768,,,,,,,,,,,,,,,,,0,-0.221780734,0,Stimuli/eumu.png,Stimuli/eimd.png,conf_face,f,0,3.05333,,1,22,0,22,0,1,,,,,,,,
,,,,,,,,,,,,,,,,,,,,,,,,,ho,3,1,2020-11-30_15h05.25.402,configural_featural,2020.2.4,Win32,60,1366,768,,,,,,,,,,,,,,,,,0,-0.221780734,0,Stimuli/eimd.png,Stimuli/eomu.png,conf_face,f,0,3.098375,space,0,23,0,23,0,1,1.024445,,,,,,,
,,,,,,,,,,,,,,,,,,,,,,,,,ho,3,1,2020-11-30_15h05.25.402,configural_featural,2020.2.4,Win32,60,1366,768,,,,,,,,,,,,,,,,,,,,,,,,,,,,,,,,,,0,1,1,1,1,conf_face,Designs/instructions_face_1234.png
,,,,,,,,,,,,,,,,,,,,,,,,,ho,3,1,2020-11-30_15h05.25.402,configural_featural,2020.2.4,Win32,60,1366,768,,,,,,,,,,,,,,,,,0,-0.221780734,1,Stimuli/H6sim0.png,Stimuli/H6sim0.png,feat_haus,f,1,3.316125,,1,0,0,0,0,1,,,,,,,,
,,,,,,,,,,,,,,,,,,,,,,,,,ho,3,1,2020-11-30_15h05.25.402,configural_featural,2020.2.4,Win32,60,1366,768,,,,,,,,,,,,,,,,,0,-0.221780734,0,Stimuli/H7sim0.png,Stimuli/H8sim0.png,feat_haus,j,1,2.04514,,1,1,0,1,0,1,,,,,,,,
,,,,,,,,,,,,,,,,,,,,,,,,,ho,3,1,2020-11-30_15h05.25.402,configural_featural,2020.2.4,Win32,60,1366,768,,,,,,,,,,,,,,,,,0,-0.221780734,0,Stimuli/H6sim0.png,Stimuli/H7sim0.png,feat_haus,f,0,5.930005,,1,2,0,2,0,1,,,,,,,,
,,,,,,,,,,,,,,,,,,,,,,,,,ho,3,1,2020-11-30_15h05.25.402,configural_featural,2020.2.4,Win32,60,1366,768,,,,,,,,,,,,,,,,,1,-0.221780734,1,Stimuli/H8sim0.png,Stimuli/H8sim0.png,feat_haus,j,0,1.62407,,0,3,0,3,0,1,,,,,,,,
,,,,,,,,,,,,,,,,,,,,,,,,,ho,3,1,2020-11-30_15h05.25.402,configural_featural,2020.2.4,Win32,60,1366,768,,,,,,,,,,,,,,,,,0,-0.221780734,0,Stimuli/H5sim0.png,Stimuli/H6sim0.png,feat_haus,f,0,1.84028,,1,4,0,4,0,1,,,,,,,,
,,,,,,,,,,,,,,,,,,,,,,,,,ho,3,1,2020-11-30_15h05.25.402,configural_featural,2020.2.4,Win32,60,1366,768,,,,,,,,,,,,,,,,,0,-0.221780734,1,Stimuli/H7sim0.png,Stimuli/H7sim0.png,feat_haus,j,0,3.459535,,1,5,0,5,0,1,,,,,,,,
,,,,,,,,,,,,,,,,,,,,,,,,,ho,3,1,2020-11-30_15h05.25.402,configural_featural,2020.2.4,Win32,60,1366,768,,,,,,,,,,,,,,,,,1,-0.221780734,0,Stimuli/H6sim0.png,Stimuli/H5sim0.png,feat_haus,f,0,3.96791,,0,6,0,6,0,1,,,,,,,,
,,,,,,,,,,,,,,,,,,,,,,,,,ho,3,1,2020-11-30_15h05.25.402,configural_featural,2020.2.4,Win32,60,1366,768,,,,,,,,,,,,,,,,,0,-0.221780734,1,Stimuli/H5sim0.png,Stimuli/H5sim0.png,feat_haus,j,0,3.635565,,1,7,0,7,0,1,,,,,,,,
,,,,,,,,,,,,,,,,,,,,,,,,,ho,3,1,2020-11-30_15h05.25.402,configural_featural,2020.2.4,Win32,60,1366,768,,,,,,,,,,,,,,,,,0,-0.221780734,0,Stimuli/H6sim0.png,Stimuli/H8sim0.png,feat_haus,f,0,2.96126,,1,8,0,8,0,1,,,,,,,,
,,,,,,,,,,,,,,,,,,,,,,,,,ho,3,1,2020-11-30_15h05.25.402,configural_featural,2020.2.4,Win32,60,1366,768,,,,,,,,,,,,,,,,,0,-0.221780734,0,Stimuli/H5sim0.png,Stimuli/H7sim0.png,feat_haus,j,1,2.655325,,1,9,0,9,0,1,,,,,,,,
,,,,,,,,,,,,,,,,,,,,,,,,,ho,3,1,2020-11-30_15h05.25.402,configural_featural,2020.2.4,Win32,60,1366,768,,,,,,,,,,,,,,,,,0,-0.221780734,1,Stimuli/H5sim0.png,Stimuli/H5sim0.png,feat_haus,f,1,3.033145,,1,10,0,10,0,1,,,,,,,,
,,,,,,,,,,,,,,,,,,,,,,,,,ho,3,1,2020-11-30_15h05.25.402,configural_featural,2020.2.4,Win32,60,1366,768,,,,,,,,,,,,,,,,,1,-0.221780734,1,Stimuli/H7sim0.png,Stimuli/H7sim0.png,feat_haus,j,0,2.286505,space,1,11,0,11,0,1,1.44984,,,,,,,
,,,,,,,,,,,,,,,,,,,,,,,,,ho,3,1,2020-11-30_15h05.25.402,configural_featural,2020.2.4,Win32,60,1366,768,,,,,,,,,,,,,,,,,0,-0.221780734,0,Stimuli/H5sim0.png,Stimuli/H8sim0.png,feat_haus,f,0,2.114175,,1,12,0,12,0,1,,,,,,,,
,,,,,,,,,,,,,,,,,,,,,,,,,ho,3,1,2020-11-30_15h05.25.402,configural_featural,2020.2.4,Win32,60,1366,768,,,,,,,,,,,,,,,,,1,-0.221780734,0,Stimuli/H7sim0.png,Stimuli/H6sim0.png,feat_haus,j,1,6.85095,,0,13,0,13,0,1,,,,,,,,
,,,,,,,,,,,,,,,,,,,,,,,,,ho,3,1,2020-11-30_15h05.25.402,configural_featural,2020.2.4,Win32,60,1366,768,,,,,,,,,,,,,,,,,0,-0.221780734,1,Stimuli/H6sim0.png,Stimuli/H6sim0.png,feat_haus,f,1,8.26975,,1,14,0,14,0,1,,,,,,,,
,,,,,,,,,,,,,,,,,,,,,,,,,ho,3,1,2020-11-30_15h05.25.402,configural_featural,2020.2.4,Win32,60,1366,768,,,,,,,,,,,,,,,,,0,-0.221780734,0,Stimuli/H8sim0.png,Stimuli/H7sim0.png,feat_haus,j,1,9.064215,,1,15,0,15,0,1,,,,,,,,
,,,,,,,,,,,,,,,,,,,,,,,,,ho,3,1,2020-11-30_15h05.25.402,configural_featural,2020.2.4,Win32,60,1366,768,,,,,,,,,,,,,,,,,0,-0.221780734,1,Stimuli/H8sim0.png,Stimuli/H8sim0.png,feat_haus,f,1,5.977675,,1,16,0,16,0,1,,,,,,,,
,,,,,,,,,,,,,,,,,,,,,,,,,ho,3,1,2020-11-30_15h05.25.402,configural_featural,2020.2.4,Win32,60,1366,768,,,,,,,,,,,,,,,,,1,-0.221780734,1,Stimuli/H5sim0.png,Stimuli/H5sim0.png,feat_haus,f,1,10.744155,,0,17,0,17,0,1,,,,,,,,
,,,,,,,,,,,,,,,,,,,,,,,,,ho,3,1,2020-11-30_15h05.25.402,configural_featural,2020.2.4,Win32,60,1366,768,,,,,,,,,,,,,,,,,0,-0.221780734,1,Stimuli/H8sim0.png,Stimuli/H8sim0.png,feat_haus,j,0,3.0566,,1,18,0,18,0,1,,,,,,,,
,,,,,,,,,,,,,,,,,,,,,,,,,ho,3,1,2020-11-30_15h05.25.402,configural_featural,2020.2.4,Win32,60,1366,768,,,,,,,,,,,,,,,,,0,-0.221780734,0,Stimuli/H8sim0.png,Stimuli/H6sim0.png,feat_haus,j,1,1.381815,,1,19,0,19,0,1,,,,,,,,
,,,,,,,,,,,,,,,,,,,,,,,,,ho,3,1,2020-11-30_15h05.25.402,configural_featural,2020.2.4,Win32,60,1366,768,,,,,,,,,,,,,,,,,0,-0.221780734,0,Stimuli/H8sim0.png,Stimuli/H5sim0.png,feat_haus,f,0,1.08258,,1,20,0,20,0,1,,,,,,,,
,,,,,,,,,,,,,,,,,,,,,,,,,ho,3,1,2020-11-30_15h05.25.402,configural_featural,2020.2.4,Win32,60,1366,768,,,,,,,,,,,,,,,,,1,-0.221780734,0,Stimuli/H7sim0.png,Stimuli/H5sim0.png,feat_haus,j,1,3.93784,,0,21,0,21,0,1,,,,,,,,
,,,,,,,,,,,,,,,,,,,,,,,,,ho,3,1,2020-11-30_15h05.25.402,configural_featural,2020.2.4,Win32,60,1366,768,,,,,,,,,,,,,,,,,0,-0.221780734,1,Stimuli/H6sim0.png,Stimuli/H6sim0.png,feat_haus,f,1,1.569635,space,0,22,0,22,0,1,0.754675,,,,,,,
,,,,,,,,,,,,,,,,,,,,,,,,,ho,3,1,2020-11-30_15h05.25.402,configural_featural,2020.2.4,Win32,60,1366,768,,,,,,,,,,,,,,,,,0,-0.221780734,1,Stimuli/H7sim0.png,Stimuli/H7sim0.png,feat_haus,j,0,1.7835,,1,23,0,23,0,1,,,,,,,,
,,,,,,,,,,,,,,,,,,,,,,,,,ho,3,1,2020-11-30_15h05.25.402,configural_featural,2020.2.4,Win32,60,1366,768,,,,,,,,,,,,,,,,,,,,,,,,,,,,,,,,,,0,2,2,2,1,feat_haus,Designs/instructions_haus_1234.png
,,,,,,,,,,,,,,,,,,,,,,,,,ho,3,1,2020-11-30_15h05.25.402,configural_featural,2020.2.4,Win32,60,1366,768,,,,,,,,,,,,,,,,,0,-0.221780734,1,Stimuli/f24.png,Stimuli/f24.png,feat_face,f,1,3.784945,,1,0,0,0,0,1,,,,,,,,
,,,,,,,,,,,,,,,,,,,,,,,,,ho,3,1,2020-11-30_15h05.25.402,configural_featural,2020.2.4,Win32,60,1366,768,,,,,,,,,,,,,,,,,0,-0.221780734,1,Stimuli/f142.png,Stimuli/f142.png,feat_face,j,0,1.67188,,1,1,0,1,0,1,,,,,,,,
,,,,,,,,,,,,,,,,,,,,,,,,,ho,3,1,2020-11-30_15h05.25.402,configural_featural,2020.2.4,Win32,60,1366,768,,,,,,,,,,,,,,,,,0,-0.221780734,0,Stimuli/f131.png,Stimuli/f24.png,feat_face,f,0,4.94706,,1,2,0,2,0,1,,,,,,,,
,,,,,,,,,,,,,,,,,,,,,,,,,ho,3,1,2020-11-30_15h05.25.402,configural_featural,2020.2.4,Win32,60,1366,768,,,,,,,,,,,,,,,,,0,-0.221780734,0,Stimuli/f24.png,Stimuli/f142.png,feat_face,f,0,1.041555,,1,3,0,3,0,1,,,,,,,,
,,,,,,,,,,,,,,,,,,,,,,,,,ho,3,1,2020-11-30_15h05.25.402,configural_featural,2020.2.4,Win32,60,1366,768,,,,,,,,,,,,,,,,,1,-0.221780734,0,Stimuli/f24.png,Stimuli/f15.png,feat_face,j,1,3.202405,,0,4,0,4,0,1,,,,,,,,
,,,,,,,,,,,,,,,,,,,,,,,,,ho,3,1,2020-11-30_15h05.25.402,configural_featural,2020.2.4,Win32,60,1366,768,,,,,,,,,,,,,,,,,0,-0.221780734,1,Stimuli/f15.png,Stimuli/f15.png,feat_face,f,1,2.41753,,1,5,0,5,0,1,,,,,,,,
,,,,,,,,,,,,,,,,,,,,,,,,,ho,3,1,2020-11-30_15h05.25.402,configural_featural,2020.2.4,Win32,60,1366,768,,,,,,,,,,,,,,,,,0,-0.221780734,0,Stimuli/f15.png,Stimuli/f24.png,feat_face,j,1,0.975865,,1,6,0,6,0,1,,,,,,,,
,,,,,,,,,,,,,,,,,,,,,,,,,ho,3,1,2020-11-30_15h05.25.402,configural_featural,2020.2.4,Win32,60,1366,768,,,,,,,,,,,,,,,,,1,-0.221780734,0,Stimuli/f142.png,Stimuli/f15.png,feat_face,f,0,3.85364,,0,7,0,7,0,1,,,,,,,,
,,,,,,,,,,,,,,,,,,,,,,,,,ho,3,1,2020-11-30_15h05.25.402,configural_featural,2020.2.4,Win32,60,1366,768,,,,,,,,,,,,,,,,,0,-0.221780734,1,Stimuli/f131.png,Stimuli/f131.png,feat_face,j,0,8.55473,,1,8,0,8,0,1,,,,,,,,
,,,,,,,,,,,,,,,,,,,,,,,,,ho,3,1,2020-11-30_15h05.25.402,configural_featural,2020.2.4,Win32,60,1366,768,,,,,,,,,,,,,,,,,1,-0.221780734,1,Stimuli/f131.png,Stimuli/f131.png,feat_face,f,1,3.784,,0,9,0,9,0,1,,,,,,,,
,,,,,,,,,,,,,,,,,,,,,,,,,ho,3,1,2020-11-30_15h05.25.402,configural_featural,2020.2.4,Win32,60,1366,768,,,,,,,,,,,,,,,,,0,-0.221780734,0,Stimuli/f142.png,Stimuli/f24.png,feat_face,j,1,4.118235,space,0,10,0,10,0,1,1.00203,,,,,,,
,,,,,,,,,,,,,,,,,,,,,,,,,ho,3,1,2020-11-30_15h05.25.402,configural_featural,2020.2.4,Win32,60,1366,768,,,,,,,,,,,,,,,,,0,-0.221780734,1,Stimuli/f142.png,Stimuli/f142.png,feat_face,f,1,1.22697,,1,11,0,11,0,1,,,,,,,,
,,,,,,,,,,,,,,,,,,,,,,,,,ho,3,1,2020-11-30_15h05.25.402,configural_featural,2020.2.4,Win32,60,1366,768,,,,,,,,,,,,,,,,,0,-0.221780734,0,Stimuli/f24.png,Stimuli/f131.png,feat_face,f,0,8.733185,,1,12,0,12,0,1,,,,,,,,
,,,,,,,,,,,,,,,,,,,,,,,,,ho,3,1,2020-11-30_15h05.25.402,configural_featural,2020.2.4,Win32,60,1366,768,,,,,,,,,,,,,,,,,0,-0.221780734,1,Stimuli/f15.png,Stimuli/f15.png,feat_face,f,1,3.20704,,1,13,0,13,0,1,,,,,,,,
,,,,,,,,,,,,,,,,,,,,,,,,,ho,3,1,2020-11-30_15h05.25.402,configural_featural,2020.2.4,Win32,60,1366,768,,,,,,,,,,,,,,,,,1,-0.221780734,1,Stimuli/f24.png,Stimuli/f24.png,feat_face,j,0,5.89866,,0,14,0,14,0,1,,,,,,,,
,,,,,,,,,,,,,,,,,,,,,,,,,ho,3,1,2020-11-30_15h05.25.402,configural_featural,2020.2.4,Win32,60,1366,768,,,,,,,,,,,,,,,,,0,-0.221780734,0,Stimuli/f142.png,Stimuli/f131.png,feat_face,f,0,3.46645,,1,15,0,15,0,1,,,,,,,,
,,,,,,,,,,,,,,,,,,,,,,,,,ho,3,1,2020-11-30_15h05.25.402,configural_featural,2020.2.4,Win32,60,1366,768,,,,,,,,,,,,,,,,,1,-0.221780734,0,Stimuli/f15.png,Stimuli/f131.png,feat_face,j,1,5.353275,,0,16,0,16,0,1,,,,,,,,
,,,,,,,,,,,,,,,,,,,,,,,,,ho,3,1,2020-11-30_15h05.25.402,configural_featural,2020.2.4,Win32,60,1366,768,,,,,,,,,,,,,,,,,0,-0.221780734,1,Stimuli/f142.png,Stimuli/f142.png,feat_face,f,1,5.21796,,1,17,0,17,0,1,,,,,,,,
,,,,,,,,,,,,,,,,,,,,,,,,,ho,3,1,2020-11-30_15h05.25.402,configural_featural,2020.2.4,Win32,60,1366,768,,,,,,,,,,,,,,,,,0,-0.221780734,0,Stimuli/f15.png,Stimuli/f142.png,feat_face,j,1,6.572135,,1,18,0,18,0,1,,,,,,,,
,,,,,,,,,,,,,,,,,,,,,,,,,ho,3,1,2020-11-30_15h05.25.402,configural_featural,2020.2.4,Win32,60,1366,768,,,,,,,,,,,,,,,,,0,-0.221780734,0,Stimuli/f131.png,Stimuli/f142.png,feat_face,f,0,4.188205,,1,19,0,19,0,1,,,,,,,,
,,,,,,,,,,,,,,,,,,,,,,,,,ho,3,1,2020-11-30_15h05.25.402,configural_featural,2020.2.4,Win32,60,1366,768,,,,,,,,,,,,,,,,,0,-0.221780734,1,Stimuli/f24.png,Stimuli/f24.png,feat_face,j,0,3.02243,,1,20,0,20,0,1,,,,,,,,
,,,,,,,,,,,,,,,,,,,,,,,,,ho,3,1,2020-11-30_15h05.25.402,configural_featural,2020.2.4,Win32,60,1366,768,,,,,,,,,,,,,,,,,1,-0.221780734,0,Stimuli/f131.png,Stimuli/f15.png,feat_face,f,0,1.10156,,0,21,0,21,0,1,,,,,,,,
,,,,,,,,,,,,,,,,,,,,,,,,,ho,3,1,2020-11-30_15h05.25.402,configural_featural,2020.2.4,Win32,60,1366,768,,,,,,,,,,,,,,,,,0,-0.221780734,1,Stimuli/f15.png,Stimuli/f15.png,feat_face,j,0,7.89579,,1,22,0,22,0,1,,,,,,,,
,,,,,,,,,,,,,,,,,,,,,,,,,ho,3,1,2020-11-30_15h05.25.402,configural_featural,2020.2.4,Win32,60,1366,768,,,,,,,,,,,,,,,,,0,-0.221780734,1,Stimuli/f131.png,Stimuli/f131.png,feat_face,f,1,5.11517,,1,23,0,23,0,1,,,,,,,,
,,,,,,,,,,,,,,,,,,,,,,,,,ho,3,1,2020-11-30_15h05.25.402,configural_featural,2020.2.4,Win32,60,1366,768,,,,,,,,,,,,,,,,,,,,,,,,,,,,,,,,,,0,3,3,3,1,feat_face,Designs/instructions_face_1234.png
,,,,,,,,,,,,,,,,,,,,,,,,,ho,3,1,2020-11-30_15h05.25.402,configural_featural,2020.2.4,Win32,60,1366,768,,,,,,,,,,,,,,,,,0,-0.221780734,1,Stimuli/H-8sim2.png,Stimuli/H-8sim2.png,conf_haus,f,1,7.359195,,1,0,0,0,0,1,,,,,,,,
,,,,,,,,,,,,,,,,,,,,,,,,,ho,3,1,2020-11-30_15h05.25.402,configural_featural,2020.2.4,Win32,60,1366,768,,,,,,,,,,,,,,,,,0,-0.221780734,1,Stimuli/H-8sim3.png,Stimuli/H-8sim3.png,conf_haus,j,0,4.05642,,1,1,0,1,0,1,,,,,,,,
,,,,,,,,,,,,,,,,,,,,,,,,,ho,3,1,2020-11-30_15h05.25.402,configural_featural,2020.2.4,Win32,60,1366,768,,,,,,,,,,,,,,,,,0,-0.221780734,1,Stimuli/H-8sim1.png,Stimuli/H-8sim1.png,conf_haus,f,1,5.850735,,1,2,0,2,0,1,,,,,,,,
,,,,,,,,,,,,,,,,,,,,,,,,,ho,3,1,2020-11-30_15h05.25.402,configural_featural,2020.2.4,Win32,60,1366,768,,,,,,,,,,,,,,,,,1,-0.221780734,0,Stimuli/H-8sim0.png,Stimuli/H-8sim3.png,conf_haus,f,0,1.25011,,0,3,0,3,0,1,,,,,,,,
,,,,,,,,,,,,,,,,,,,,,,,,,ho,3,1,2020-11-30_15h05.25.402,configural_featural,2020.2.4,Win32,60,1366,768,,,,,,,,,,,,,,,,,0,-0.221780734,0,Stimuli/H-8sim3.png,Stimuli/H-8sim2.png,conf_haus,j,1,1.567845,,1,4,0,4,0,1,,,,,,,,
,,,,,,,,,,,,,,,,,,,,,,,,,ho,3,1,2020-11-30_15h05.25.402,configural_featural,2020.2.4,Win32,60,1366,768,,,,,,,,,,,,,,,,,0,-0.221780734,0,Stimuli/H-8sim2.png,Stimuli/H-8sim3.png,conf_haus,f,0,2.57016,,1,5,0,5,0,1,,,,,,,,
,,,,,,,,,,,,,,,,,,,,,,,,,ho,3,1,2020-11-30_15h05.25.402,configural_featural,2020.2.4,Win32,60,1366,768,,,,,,,,,,,,,,,,,0,-0.221780734,0,Stimuli/H-8sim0.png,Stimuli/H-8sim2.png,conf_haus,f,0,1.104125,,1,6,0,6,0,1,,,,,,,,
,,,,,,,,,,,,,,,,,,,,,,,,,ho,3,1,2020-11-30_15h05.25.402,configural_featural,2020.2.4,Win32,60,1366,768,,,,,,,,,,,,,,,,,1,-0.221780734,0,Stimuli/H-8sim1.png,Stimuli/H-8sim0.png,conf_haus,j,1,2.74397,,0,7,0,7,0,1,,,,,,,,
,,,,,,,,,,,,,,,,,,,,,,,,,ho,3,1,2020-11-30_15h05.25.402,configural_featural,2020.2.4,Win32,60,1366,768,,,,,,,,,,,,,,,,,0,-0.221780734,0,Stimuli/H-8sim1.png,Stimuli/H-8sim3.png,conf_haus,f,0,3.760145,,1,8,0,8,0,1,,,,,,,,
,,,,,,,,,,,,,,,,,,,,,,,,,ho,3,1,2020-11-30_15h05.25.402,configural_featural,2020.2.4,Win32,60,1366,768,,,,,,,,,,,,,,,,,1,-0.221780734,1,Stimuli/H-8sim0.png,Stimuli/H-8sim0.png,conf_haus,j,0,1.894785,,0,9,0,9,0,1,,,,,,,,
,,,,,,,,,,,,,,,,,,,,,,,,,ho,3,1,2020-11-30_15h05.25.402,configural_featural,2020.2.4,Win32,60,1366,768,,,,,,,,,,,,,,,,,0,-0.221780734,1,Stimuli/H-8sim0.png,Stimuli/H-8sim0.png,conf_haus,j,0,1.444505,,1,10,0,10,0,1,,,,,,,,
,,,,,,,,,,,,,,,,,,,,,,,,,ho,3,1,2020-11-30_15h05.25.402,configural_featural,2020.2.4,Win32,60,1366,768,,,,,,,,,,,,,,,,,0,-0.221780734,1,Stimuli/H-8sim1.png,Stimuli/H-8sim1.png,conf_haus,f,1,2.060095,,1,11,0,11,0,1,,,,,,,,
,,,,,,,,,,,,,,,,,,,,,,,,,ho,3,1,2020-11-30_15h05.25.402,configural_featural,2020.2.4,Win32,60,1366,768,,,,,,,,,,,,,,,,,0,-0.221780734,0,Stimuli/H-8sim2.png,Stimuli/H-8sim1.png,conf_haus,j,1,3.349315,,1,12,0,12,0,1,,,,,,,,
,,,,,,,,,,,,,,,,,,,,,,,,,ho,3,1,2020-11-30_15h05.25.402,configural_featural,2020.2.4,Win32,60,1366,768,,,,,,,,,,,,,,,,,0,-0.221780734,1,Stimuli/H-8sim2.png,Stimuli/H-8sim2.png,conf_haus,f,1,2.514645,,1,13,0,13,0,1,,,,,,,,
,,,,,,,,,,,,,,,,,,,,,,,,,ho,3,1,2020-11-30_15h05.25.402,configural_featural,2020.2.4,Win32,60,1366,768,,,,,,,,,,,,,,,,,1,-0.221780734,1,Stimuli/H-8sim3.png,Stimuli/H-8sim3.png,conf_haus,j,0,3.67608,,0,14,0,14,0,1,,,,,,,,
,,,,,,,,,,,,,,,,,,,,,,,,,ho,3,1,2020-11-30_15h05.25.402,configural_featural,2020.2.4,Win32,60,1366,768,,,,,,,,,,,,,,,,,0,-0.221780734,0,Stimuli/H-8sim0.png,Stimuli/H-8sim1.png,conf_haus,f,0,1.935825,,1,15,0,15,0,1,,,,,,,,
,,,,,,,,,,,,,,,,,,,,,,,,,ho,3,1,2020-11-30_15h05.25.402,configural_featural,2020.2.4,Win32,60,1366,768,,,,,,,,,,,,,,,,,1,-0.221780734,1,Stimuli/H-8sim0.png,Stimuli/H-8sim0.png,conf_haus,j,0,2.707665,,0,16,0,16,0,1,,,,,,,,
,,,,,,,,,,,,,,,,,,,,,,,,,ho,3,1,2020-11-30_15h05.25.402,configural_featural,2020.2.4,Win32,60,1366,768,,,,,,,,,,,,,,,,,0,-0.221780734,0,Stimuli/H-8sim3.png,Stimuli/H-8sim0.png,conf_haus,f,0,3.90325,,1,17,0,17,0,1,,,,,,,,
,,,,,,,,,,,,,,,,,,,,,,,,,ho,3,1,2020-11-30_15h05.25.402,configural_featural,2020.2.4,Win32,60,1366,768,,,,,,,,,,,,,,,,,0,-0.221780734,1,Stimuli/H-8sim2.png,Stimuli/H-8sim2.png,conf_haus,j,0,1.670925,,1,18,0,18,0,1,,,,,,,,
,,,,,,,,,,,,,,,,,,,,,,,,,ho,3,1,2020-11-30_15h05.25.402,configural_featural,2020.2.4,Win32,60,1366,768,,,,,,,,,,,,,,,,,0,-0.221780734,1,Stimuli/H-8sim3.png,Stimuli/H-8sim3.png,conf_haus,f,1,3.127875,,1,19,0,19,0,1,,,,,,,,
,,,,,,,,,,,,,,,,,,,,,,,,,ho,3,1,2020-11-30_15h05.25.402,configural_featural,2020.2.4,Win32,60,1366,768,,,,,,,,,,,,,,,,,0,-0.221780734,0,Stimuli/H-8sim3.png,Stimuli/H-8sim1.png,conf_haus,j,1,2.384885,,1,20,0,20,0,1,,,,,,,,
,,,,,,,,,,,,,,,,,,,,,,,,,ho,3,1,2020-11-30_15h05.25.402,configural_featural,2020.2.4,Win32,60,1366,768,,,,,,,,,,,,,,,,,1,-0.221780734,0,Stimuli/H-8sim2.png,Stimuli/H-8sim0.png,conf_haus,j,1,1.93398,,0,21,0,21,0,1,,,,,,,,
,,,,,,,,,,,,,,,,,,,,,,,,,ho,3,1,2020-11-30_15h05.25.402,configural_featural,2020.2.4,Win32,60,1366,768,,,,,,,,,,,,,,,,,0,-0.221780734,0,Stimuli/H-8sim1.png,Stimuli/H-8sim2.png,conf_haus,f,0,2.218985,,1,22,0,22,0,1,,,,,,,,
,,,,,,,,,,,,,,,,,,,,,,,,,ho,3,1,2020-11-30_15h05.25.402,configural_featural,2020.2.4,Win32,60,1366,768,,,,,,,,,,,,,,,,,0,-0.221780734,1,Stimuli/H-8sim1.png,Stimuli/H-8sim1.png,conf_haus,j,0,2.592665,,1,23,0,23,0,1,,,,,,,,
,,,,,,,,,,,,,,,,,,,,,,,,,ho,3,1,2020-11-30_15h05.25.402,configural_featural,2020.2.4,Win32,60,1366,768,,,,,,,,,,,,,,,,,,,,,,,,,,,,,,,,,,1,0,4,0,1,conf_haus,Designs/instructions_haus_1234.png
,,,,,,,,,,,,,,,,,,,,,,,,,ho,3,1,2020-11-30_15h05.25.402,configural_featural,2020.2.4,Win32,60,1366,768,,,,,,,,,,,,,,,,,0,-0.221780734,0,Stimuli/eimd.png,Stimuli/edmd.png,conf_face,f,0,1.805215,,1,0,0,0,0,1,,,,,,,,
,,,,,,,,,,,,,,,,,,,,,,,,,ho,3,1,2020-11-30_15h05.25.402,configural_featural,2020.2.4,Win32,60,1366,768,,,,,,,,,,,,,,,,,0,-0.221780734,0,Stimuli/edmd.png,Stimuli/eimd.png,conf_face,j,1,1.692535,,1,1,0,1,0,1,,,,,,,,
,,,,,,,,,,,,,,,,,,,,,,,,,ho,3,1,2020-11-30_15h05.25.402,configural_featural,2020.2.4,Win32,60,1366,768,,,,,,,,,,,,,,,,,0,-0.221780734,0,Stimuli/eimd.png,Stimuli/eomu.png,conf_face,f,0,2.71236,,1,2,0,2,0,1,,,,,,,,
,,,,,,,,,,,,,,,,,,,,,,,,,ho,3,1,2020-11-30_15h05.25.402,configural_featural,2020.2.4,Win32,60,1366,768,,,,,,,,,,,,,,,,,0,-0.221780734,1,Stimuli/eumu.png,Stimuli/eumu.png,conf_face,j,0,2.100065,,1,3,0,3,0,1,,,,,,,,
,,,,,,,,,,,,,,,,,,,,,,,,,ho,3,1,2020-11-30_15h05.25.402,configural_featural,2020.2.4,Win32,60,1366,768,,,,,,,,,,,,,,,,,1,-0.221780734,1,Stimuli/eimd.png,Stimuli/eimd.png,conf_face,f,1,1.084465,,0,4,0,4,0,1,,,,,,,,
,,,,,,,,,,,,,,,,,,,,,,,,,ho,3,1,2020-11-30_15h05.25.402,configural_featural,2020.2.4,Win32,60,1366,768,,,,,,,,,,,,,,,,,0,-0.221780734,1,Stimuli/edmd.png,Stimuli/edmd.png,conf_face,j,0,3.50814,,1,5,0,5,0,1,,,,,,,,
,,,,,,,,,,,,,,,,,,,,,,,,,ho,3,1,2020-11-30_15h05.25.402,configural_featural,2020.2.4,Win32,60,1366,768,,,,,,,,,,,,,,,,,0,-0.221780734,1,Stimuli/eomu.png,Stimuli/eomu.png,conf_face,f,1,4.74798,,1,6,0,6,0,1,,,,,,,,
,,,,,,,,,,,,,,,,,,,,,,,,,ho,3,1,2020-11-30_15h05.25.402,configural_featural,2020.2.4,Win32,60,1366,768,,,,,,,,,,,,,,,,,1,-0.221780734,0,Stimuli/edmd.png,Stimuli/eumu.png,conf_face,j,1,1.339625,,0,7,0,7,0,1,,,,,,,,
,,,,,,,,,,,,,,,,,,,,,,,,,ho,3,1,2020-11-30_15h05.25.402,configural_featural,2020.2.4,Win32,60,1366,768,,,,,,,,,,,,,,,,,0,-0.221780734,0,Stimuli/eumu.png,Stimuli/edmd.png,conf_face,f,0,2.62931,,1,8,0,8,0,1,,,,,,,,
,,,,,,,,,,,,,,,,,,,,,,,,,ho,3,1,2020-11-30_15h05.25.402,configural_featural,2020.2.4,Win32,60,1366,768,,,,,,,,,,,,,,,,,0,-0.221780734,1,Stimuli/eumu.png,Stimuli/eumu.png,conf_face,j,0,1.835625,,1,9,0,9,0,1,,,,,,,,
,,,,,,,,,,,,,,,,,,,,,,,,,ho,3,1,2020-11-30_15h05.25.402,configural_featural,2020.2.4,Win32,60,1366,768,,,,,,,,,,,,,,,,,0,-0.221780734,1,Stimuli/edmd.png,Stimuli/edmd.png,conf_face,f,1,1.0354,,1,10,0,10,0,1,,,,,,,,
,,,,,,,,,,,,,,,,,,,,,,,,,ho,3,1,2020-11-30_15h05.25.402,configural_featural,2020.2.4,Win32,60,1366,768,,,,,,,,,,,,,,,,,1,-0.221780734,0,Stimuli/eumu.png,Stimuli/eomu.png,conf_face,j,1,1.125325,,0,11,0,11,0,1,,,,,,,,
,,,,,,,,,,,,,,,,,,,,,,,,,ho,3,1,2020-11-30_15h05.25.402,configural_featural,2020.2.4,Win32,60,1366,768,,,,,,,,,,,,,,,,,0,-0.221780734,1,Stimuli/eomu.png,Stimuli/eomu.png,conf_face,f,1,1.50851,,1,12,0,12,0,1,,,,,,,,
,,,,,,,,,,,,,,,,,,,,,,,,,ho,3,1,2020-11-30_15h05.25.402,configural_featural,2020.2.4,Win32,60,1366,768,,,,,,,,,,,,,,,,,0,-0.221780734,0,Stimuli/eomu.png,Stimuli/eimd.png,conf_face,j,1,3.20107,,1,13,0,13,0,1,,,,,,,,
,,,,,,,,,,,,,,,,,,,,,,,,,ho,3,1,2020-11-30_15h05.25.402,configural_featural,2020.2.4,Win32,60,1366,768,,,,,,,,,,,,,,,,,1,-0.221780734,0,Stimuli/edmd.png,Stimuli/eomu.png,conf_face,j,1,1.29563,,0,14,0,14,0,1,,,,,,,,
,,,,,,,,,,,,,,,,,,,,,,,,,ho,3,1,2020-11-30_15h05.25.402,configural_featural,2020.2.4,Win32,60,1366,768,,,,,,,,,,,,,,,,,0,-0.221780734,1,Stimuli/eimd.png,Stimuli/eimd.png,conf_face,f,1,2.169655,,1,15,0,15,0,1,,,,,,,,
,,,,,,,,,,,,,,,,,,,,,,,,,ho,3,1,2020-11-30_15h05.25.402,configural_featural,2020.2.4,Win32,60,1366,768,,,,,,,,,,,,,,,,,1,-0.221780734,1,Stimuli/eomu.png,Stimuli/eomu.png,conf_face,j,0,1.53293,,0,16,0,16,0,1,,,,,,,,
,,,,,,,,,,,,,,,,,,,,,,,,,ho,3,1,2020-11-30_15h05.25.402,configural_featural,2020.2.4,Win32,60,1366,768,,,,,,,,,,,,,,,,,0,-0.221780734,0,Stimuli/eumu.png,Stimuli/eimd.png,conf_face,f,0,3.865875,,1,17,0,17,0,1,,,,,,,,
,,,,,,,,,,,,,,,,,,,,,,,,,ho,3,1,2020-11-30_15h05.25.402,configural_featural,2020.2.4,Win32,60,1366,768,,,,,,,,,,,,,,,,,0,-0.221780734,1,Stimuli/eumu.png,Stimuli/eumu.png,conf_face,j,0,2.502775,,1,18,0,18,0,1,,,,,,,,
,,,,,,,,,,,,,,,,,,,,,,,,,ho,3,1,2020-11-30_15h05.25.402,configural_featural,2020.2.4,Win32,60,1366,768,,,,,,,,,,,,,,,,,0,-0.221780734,0,Stimuli/eomu.png,Stimuli/eumu.png,conf_face,j,1,1.7883,,1,19,0,19,0,1,,,,,,,,
,,,,,,,,,,,,,,,,,,,,,,,,,ho,3,1,2020-11-30_15h05.25.402,configural_featural,2020.2.4,Win32,60,1366,768,,,,,,,,,,,,,,,,,0,-0.221780734,0,Stimuli/eomu.png,Stimuli/edmd.png,conf_face,f,0,3.11925,,1,20,0,20,0,1,,,,,,,,
,,,,,,,,,,,,,,,,,,,,,,,,,ho,3,1,2020-11-30_15h05.25.402,configural_featural,2020.2.4,Win32,60,1366,768,,,,,,,,,,,,,,,,,1,-0.221780734,1,Stimuli/edmd.png,Stimuli/edmd.png,conf_face,j,0,1.834795,,0,21,0,21,0,1,,,,,,,,
,,,,,,,,,,,,,,,,,,,,,,,,,ho,3,1,2020-11-30_15h05.25.402,configural_featural,2020.2.4,Win32,60,1366,768,,,,,,,,,,,,,,,,,0,-0.221780734,0,Stimuli/eimd.png,Stimuli/eumu.png,conf_face,f,0,2.890905,,1,22,0,22,0,1,,,,,,,,
,,,,,,,,,,,,,,,,,,,,,,,,,ho,3,1,2020-11-30_15h05.25.402,configural_featural,2020.2.4,Win32,60,1366,768,,,,,,,,,,,,,,,,,0,-0.221780734,1,Stimuli/eimd.png,Stimuli/eimd.png,conf_face,j,0,3.319065,,1,23,0,23,0,1,,,,,,,,
,,,,,,,,,,,,,,,,,,,,,,,,,ho,3,1,2020-11-30_15h05.25.402,configural_featural,2020.2.4,Win32,60,1366,768,,,,,,,,,,,,,,,,,,,,,,,,,,,,,,,,,,1,1,5,1,1,conf_face,Designs/instructions_face_1234.png
,,,,,,,,,,,,,,,,,,,,,,,,,ho,3,1,2020-11-30_15h05.25.402,configural_featural,2020.2.4,Win32,60,1366,768,,,,,,,,,,,,,,,,,0,-0.221780734,1,Stimuli/H7sim0.png,Stimuli/H7sim0.png,feat_haus,f,1,4.38505,,1,0,0,0,0,1,,,,,,,,
,,,,,,,,,,,,,,,,,,,,,,,,,ho,3,1,2020-11-30_15h05.25.402,configural_featural,2020.2.4,Win32,60,1366,768,,,,,,,,,,,,,,,,,0,-0.221780734,0,Stimuli/H6sim0.png,Stimuli/H8sim0.png,feat_haus,j,1,1.82639,space,0,1,0,1,0,1,0.7721,,,,,,,
,,,,,,,,,,,,,,,,,,,,,,,,,ho,3,1,2020-11-30_15h05.25.402,configural_featural,2020.2.4,Win32,60,1366,768,,,,,,,,,,,,,,,,,1,-0.221780734,0,Stimuli/H8sim0.png,Stimuli/H6sim0.png,feat_haus,f,0,4.653815,,0,2,0,2,0,1,,,,,,,,
,,,,,,,,,,,,,,,,,,,,,,,,,ho,3,1,2020-11-30_15h05.25.402,configural_featural,2020.2.4,Win32,60,1366,768,,,,,,,,,,,,,,,,,0,-0.221780734,1,Stimuli/H8sim0.png,Stimuli/H8sim0.png,feat_haus,j,0,7.742475,,1,3,0,3,0,1,,,,,,,,
,,,,,,,,,,,,,,,,,,,,,,,,,ho,3,1,2020-11-30_15h05.25.402,configural_featural,2020.2.4,Win32,60,1366,768,,,,,,,,,,,,,,,,,0,-0.221780734,1,Stimuli/H5sim0.png,Stimuli/H5sim0.png,feat_haus,f,1,13.13284,,1,4,0,4,0,1,,,,,,,,
,,,,,,,,,,,,,,,,,,,,,,,,,ho,3,1,2020-11-30_15h05.25.402,configural_featural,2020.2.4,Win32,60,1366,768,,,,,,,,,,,,,,,,,0,-0.221780734,0,Stimuli/H5sim0.png,Stimuli/H6sim0.png,feat_haus,j,1,13.981105,,1,5,0,5,0,1,,,,,,,,
,,,,,,,,,,,,,,,,,,,,,,,,,ho,3,1,2020-11-30_15h05.25.402,configural_featural,2020.2.4,Win32,60,1366,768,,,,,,,,,,,,,,,,,1,-0.221780734,0,Stimuli/H5sim0.png,Stimuli/H8sim0.png,feat_haus,f,0,6.1578,,0,6,0,6,0,1,,,,,,,,
,,,,,,,,,,,,,,,,,,,,,,,,,ho,3,1,2020-11-30_15h05.25.402,configural_featural,2020.2.4,Win32,60,1366,768,,,,,,,,,,,,,,,,,0,-0.221780734,1,Stimuli/H6sim0.png,Stimuli/H6sim0.png,feat_haus,j,0,6.49485,space,0,7,0,7,0,1,1.0159,,,,,,,
,,,,,,,,,,,,,,,,,,,,,,,,,ho,3,1,2020-11-30_15h05.25.402,configural_featural,2020.2.4,Win32,60,1366,768,,,,,,,,,,,,,,,,,0,-0.221780734,0,Stimuli/H6sim0.png,Stimuli/H5sim0.png,feat_haus,f,0,10.56144,,1,8,0,8,0,1,,,,,,,,
,,,,,,,,,,,,,,,,,,,,,,,,,ho,3,1,2020-11-30_15h05.25.402,configural_featural,2020.2.4,Win32,60,1366,768,,,,,,,,,,,,,,,,,0,-0.221780734,1,Stimuli/H8sim0.png,Stimuli/H8sim0.png,feat_haus,j,0,6.11324,,1,9,0,9,0,1,,,,,,,,
,,,,,,,,,,,,,,,,,,,,,,,,,ho,3,1,2020-11-30_15h05.25.402,configural_featural,2020.2.4,Win32,60,1366,768,,,,,,,,,,,,,,,,,0,-0.221780734,1,Stimuli/H6sim0.png,Stimuli/H6sim0.png,feat_haus,f,1,4.733475,,1,10,0,10,0,1,,,,,,,,
,,,,,,,,,,,,,,,,,,,,,,,,,ho,3,1,2020-11-30_15h05.25.402,configural_featural,2020.2.4,Win32,60,1366,768,,,,,,,,,,,,,,,,,1,-0.221780734,0,Stimuli/H6sim0.png,Stimuli/H7sim0.png,feat_haus,j,1,3.066705,,0,11,0,11,0,1,,,,,,,,
,,,,,,,,,,,,,,,,,,,,,,,,,ho,3,1,2020-11-30_15h05.25.402,configural_featural,2020.2.4,Win32,60,1366,768,,,,,,,,,,,,,,,,,0,-0.221780734,0,Stimuli/H8sim0.png,Stimuli/H5sim0.png,feat_haus,f,0,12.657575,space,0,12,0,12,0,1,1.12366,,,,,,,
,,,,,,,,,,,,,,,,,,,,,,,,,ho,3,1,2020-11-30_15h05.25.402,configural_featural,2020.2.4,Win32,60,1366,768,,,,,,,,,,,,,,,,,1,-0.221780734,1,Stimuli/H7sim0.png,Stimuli/H7sim0.png,feat_haus,j,0,7.62598,,0,13,0,13,0,1,,,,,,,,
,,,,,,,,,,,,,,,,,,,,,,,,,ho,3,1,2020-11-30_15h05.25.402,configural_featural,2020.2.4,Win32,60,1366,768,,,,,,,,,,,,,,,,,0,-0.221780734,1,Stimuli/H5sim0.png,Stimuli/H5sim0.png,feat_haus,f,1,13.29289,,1,14,0,14,0,1,,,,,,,,
,,,,,,,,,,,,,,,,,,,,,,,,,ho,3,1,2020-11-30_15h05.25.402,configural_featural,2020.2.4,Win32,60,1366,768,,,,,,,,,,,,,,,,,0,-0.221780734,0,Stimuli/H7sim0.png,Stimuli/H8sim0.png,feat_haus,f,0,6.03385,,1,15,0,15,0,1,,,,,,,,
,,,,,,,,,,,,,,,,,,,,,,,,,ho,3,1,2020-11-30_15h05.25.402,configural_featural,2020.2.4,Win32,60,1366,768,,,,,,,,,,,,,,,,,0,-0.221780734,0,Stimuli/H7sim0.png,Stimuli/H6sim0.png,feat_haus,j,1,4.883305,,1,16,0,16,0,1,,,,,,,,
,,,,,,,,,,,,,,,,,,,,,,,,,ho,3,1,2020-11-30_15h05.25.402,configural_featural,2020.2.4,Win32,60,1366,768,,,,,,,,,,,,,,,,,0,-0.221780734,1,Stimuli/H7sim0.png,Stimuli/H7sim0.png,feat_haus,f,1,11.19683,,1,17,0,17,0,1,,,,,,,,
,,,,,,,,,,,,,,,,,,,,,,,,,ho,3,1,2020-11-30_15h05.25.402,configural_featural,2020.2.4,Win32,60,1366,768,,,,,,,,,,,,,,,,,1,-0.221780734,1,Stimuli/H6sim0.png,Stimuli/H6sim0.png,feat_haus,j,0,5.530525,,0,18,0,18,0,1,,,,,,,,
,,,,,,,,,,,,,,,,,,,,,,,,,ho,3,1,2020-11-30_15h05.25.402,configural_featural,2020.2.4,Win32,60,1366,768,,,,,,,,,,,,,,,,,0,-0.221780734,0,Stimuli/H5sim0.png,Stimuli/H7sim0.png,feat_haus,f,0,9.762865,,1,19,0,19,0,1,,,,,,,,
,,,,,,,,,,,,,,,,,,,,,,,,,ho,3,1,2020-11-30_15h05.25.402,configural_featural,2020.2.4,Win32,60,1366,768,,,,,,,,,,,,,,,,,0,-0.221780734,0,Stimuli/H8sim0.png,Stimuli/H7sim0.png,feat_haus,j,1,4.999225,,1,20,0,20,0,1,,,,,,,,
,,,,,,,,,,,,,,,,,,,,,,,,,ho,3,1,2020-11-30_15h05.25.402,configural_featural,2020.2.4,Win32,60,1366,768,,,,,,,,,,,,,,,,,1,-0.221780734,1,Stimuli/H5sim0.png,Stimuli/H5sim0.png,feat_haus,f,1,8.24465,,0,21,0,21,0,1,,,,,,,,
,,,,,,,,,,,,,,,,,,,,,,,,,ho,3,1,2020-11-30_15h05.25.402,configural_featural,2020.2.4,Win32,60,1366,768,,,,,,,,,,,,,,,,,0,-0.221780734,0,Stimuli/H7sim0.png,Stimuli/H5sim0.png,feat_haus,j,1,7.60166,,1,22,0,22,0,1,,,,,,,,
,,,,,,,,,,,,,,,,,,,,,,,,,ho,3,1,2020-11-30_15h05.25.402,configural_featural,2020.2.4,Win32,60,1366,768,,,,,,,,,,,,,,,,,0,-0.221780734,1,Stimuli/H8sim0.png,Stimuli/H8sim0.png,feat_haus,f,1,7.13155,,1,23,0,23,0,1,,,,,,,,
,,,,,,,,,,,,,,,,,,,,,,,,,ho,3,1,2020-11-30_15h05.25.402,configural_featural,2020.2.4,Win32,60,1366,768,,,,,,,,,,,,,,,,,,,,,,,,,,,,,,,,,,1,2,6,2,1,feat_haus,Designs/instructions_haus_1234.png
,,,,,,,,,,,,,,,,,,,,,,,,,ho,3,1,2020-11-30_15h05.25.402,configural_featural,2020.2.4,Win32,60,1366,768,,,,,,,,,,,,,,,,,0,-0.221780734,0,Stimuli/f142.png,Stimuli/f15.png,feat_face,f,0,3.499095,,1,0,0,0,0,1,,,,,,,,
,,,,,,,,,,,,,,,,,,,,,,,,,ho,3,1,2020-11-30_15h05.25.402,configural_featural,2020.2.4,Win32,60,1366,768,,,,,,,,,,,,,,,,,0,-0.221780734,1,Stimuli/f142.png,Stimuli/f142.png,feat_face,j,0,4.046035,,1,1,0,1,0,1,,,,,,,,
,,,,,,,,,,,,,,,,,,,,,,,,,ho,3,1,2020-11-30_15h05.25.402,configural_featural,2020.2.4,Win32,60,1366,768,,,,,,,,,,,,,,,,,0,-0.221780734,1,Stimuli/f24.png,Stimuli/f24.png,feat_face,f,1,1.65226,,1,2,0,2,0,1,,,,,,,,
,,,,,,,,,,,,,,,,,,,,,,,,,ho,3,1,2020-11-30_15h05.25.402,configural_featural,2020.2.4,Win32,60,1366,768,,,,,,,,,,,,,,,,,0,-0.221780734,0,Stimuli/f24.png,Stimuli/f15.png,feat_face,j,1,2.03623,,1,3,0,3,0,1,,,,,,,,
,,,,,,,,,,,,,,,,,,,,,,,,,ho,3,1,2020-11-30_15h05.25.402,configural_featural,2020.2.4,Win32,60,1366,768,,,,,,,,,,,,,,,,,1,-0.221780734,1,Stimuli/f131.png,Stimuli/f131.png,feat_face,f,1,9.10115,,0,4,0,4,0,1,,,,,,,,
,,,,,,,,,,,,,,,,,,,,,,,,,ho,3,1,2020-11-30_15h05.25.402,configural_featural,2020.2.4,Win32,60,1366,768,,,,,,,,,,,,,,,,,0,-0.221780734,0,Stimuli/f15.png,Stimuli/f142.png,feat_face,j,1,2.459785,,1,5,0,5,0,1,,,,,,,,
,,,,,,,,,,,,,,,,,,,,,,,,,ho,3,1,2020-11-30_15h05.25.402,configural_featural,2020.2.4,Win32,60,1366,768,,,,,,,,,,,,,,,,,1,-0.221780734,1,Stimuli/f15.png,Stimuli/f15.png,feat_face,f,1,1.56605,,0,6,0,6,0,1,,,,,,,,
,,,,,,,,,,,,,,,,,,,,,,,,,ho,3,1,2020-11-30_15h05.25.402,configural_featural,2020.2.4,Win32,60,1366,768,,,,,,,,,,,,,,,,,0,-0.221780734,0,Stimuli/f131.png,Stimuli/f15.png,feat_face,j,1,1.558645,,1,7,0,7,0,1,,,,,,,,
,,,,,,,,,,,,,,,,,,,,,,,,,ho,3,1,2020-11-30_15h05.25.402,configural_featural,2020.2.4,Win32,60,1366,768,,,,,,,,,,,,,,,,,0,-0.221780734,1,Stimuli/f24.png,Stimuli/f24.png,feat_face,f,1,1.571215,,1,8,0,8,0,1,,,,,,,,
,,,,,,,,,,,,,,,,,,,,,,,,,ho,3,1,2020-11-30_15h05.25.402,configural_featural,2020.2.4,Win32,60,1366,768,,,,,,,,,,,,,,,,,0,-0.221780734,0,Stimuli/f24.png,Stimuli/f142.png,feat_face,f,0,2.008625,,1,9,0,9,0,1,,,,,,,,
,,,,,,,,,,,,,,,,,,,,,,,,,ho,3,1,2020-11-30_15h05.25.402,configural_featural,2020.2.4,Win32,60,1366,768,,,,,,,,,,,,,,,,,1,-0.221780734,1,Stimuli/f131.png,Stimuli/f131.png,feat_face,j,0,1.558945,,0,10,0,10,0,1,,,,,,,,
,,,,,,,,,,,,,,,,,,,,,,,,,ho,3,1,2020-11-30_15h05.25.402,configural_featural,2020.2.4,Win32,60,1366,768,,,,,,,,,,,,,,,,,0,-0.221780734,0,Stimuli/f15.png,Stimuli/f24.png,feat_face,j,1,2.19667,,1,11,0,11,0,1,,,,,,,,
,,,,,,,,,,,,,,,,,,,,,,,,,ho,3,1,2020-11-30_15h05.25.402,configural_featural,2020.2.4,Win32,60,1366,768,,,,,,,,,,,,,,,,,0,-0.221780734,0,Stimuli/f142.png,Stimuli/f131.png,feat_face,f,0,2.00385,,1,12,0,12,0,1,,,,,,,,
,,,,,,,,,,,,,,,,,,,,,,,,,ho,3,1,2020-11-30_15h05.25.402,configural_featural,2020.2.4,Win32,60,1366,768,,,,,,,,,,,,,,,,,1,-0.221780734,0,Stimuli/f131.png,Stimuli/f142.png,feat_face,j,1,1.416715,,0,13,0,13,0,1,,,,,,,,
,,,,,,,,,,,,,,,,,,,,,,,,,ho,3,1,2020-11-30_15h05.25.402,configural_featural,2020.2.4,Win32,60,1366,768,,,,,,,,,,,,,,,,,0,-0.221780734,1,Stimuli/f142.png,Stimuli/f142.png,feat_face,f,1,1.332385,,1,14,0,14,0,1,,,,,,,,
,,,,,,,,,,,,,,,,,,,,,,,,,ho,3,1,2020-11-30_15h05.25.402,configural_featural,2020.2.4,Win32,60,1366,768,,,,,,,,,,,,,,,,,0,-0.221780734,1,Stimuli/f15.png,Stimuli/f15.png,feat_face,j,0,2.05234,,1,15,0,15,0,1,,,,,,,,
,,,,,,,,,,,,,,,,,,,,,,,,,ho,3,1,2020-11-30_15h05.25.402,configural_featural,2020.2.4,Win32,60,1366,768,,,,,,,,,,,,,,,,,1,-0.221780734,1,Stimuli/f131.png,Stimuli/f131.png,feat_face,f,1,11.41426,,0,16,0,16,0,1,,,,,,,,
,,,,,,,,,,,,,,,,,,,,,,,,,ho,3,1,2020-11-30_15h05.25.402,configural_featural,2020.2.4,Win32,60,1366,768,,,,,,,,,,,,,,,,,0,-0.221780734,0,Stimuli/f24.png,Stimuli/f131.png,feat_face,j,1,2.08862,,1,17,0,17,0,1,,,,,,,,
,,,,,,,,,,,,,,,,,,,,,,,,,ho,3,1,2020-11-30_15h05.25.402,configural_featural,2020.2.4,Win32,60,1366,768,,,,,,,,,,,,,,,,,0,-0.221780734,0,Stimuli/f131.png,Stimuli/f24.png,feat_face,f,0,2.28258,,1,18,0,18,0,1,,,,,,,,
,,,,,,,,,,,,,,,,,,,,,,,,,ho,3,1,2020-11-30_15h05.25.402,configural_featural,2020.2.4,Win32,60,1366,768,,,,,,,,,,,,,,,,,0,-0.221780734,0,Stimuli/f142.png,Stimuli/f24.png,feat_face,j,1,1.478745,,1,19,0,19,0,1,,,,,,,,
,,,,,,,,,,,,,,,,,,,,,,,,,ho,3,1,2020-11-30_15h05.25.402,configural_featural,2020.2.4,Win32,60,1366,768,,,,,,,,,,,,,,,,,0,-0.221780734,0,Stimuli/f15.png,Stimuli/f131.png,feat_face,f,0,2.26677,,1,20,0,20,0,1,,,,,,,,
,,,,,,,,,,,,,,,,,,,,,,,,,ho,3,1,2020-11-30_15h05.25.402,configural_featural,2020.2.4,Win32,60,1366,768,,,,,,,,,,,,,,,,,1,-0.221780734,1,Stimuli/f24.png,Stimuli/f24.png,feat_face,j,0,3.39194,,0,21,0,21,0,1,,,,,,,,
,,,,,,,,,,,,,,,,,,,,,,,,,ho,3,1,2020-11-30_15h05.25.402,configural_featural,2020.2.4,Win32,60,1366,768,,,,,,,,,,,,,,,,,0,-0.221780734,1,Stimuli/f15.png,Stimuli/f15.png,feat_face,f,1,3.538735,,1,22,0,22,0,1,,,,,,,,
,,,,,,,,,,,,,,,,,,,,,,,,,ho,3,1,2020-11-30_15h05.25.402,configural_featural,2020.2.4,Win32,60,1366,768,,,,,,,,,,,,,,,,,0,-0.221780734,1,Stimuli/f142.png,Stimuli/f142.png,feat_face,j,0,1.248115,,1,23,0,23,0,1,,,,,,,,
,,,,,,,,,,,,,,,,,,,,,,,,,ho,3,1,2020-11-30_15h05.25.402,configural_featural,2020.2.4,Win32,60,1366,768,,,,,,,,,,,,,,,,,,,,,,,,,,,,,,,,,,1,3,7,3,1,feat_face,Designs/instructions_face_1234.png
