X Scale,Y Scale,prePrac1Resp.keys,prePrac1Resp.corr,prePrac1Resp.rt,key_resp_10.keys,key_resp_10.corr,key_resp_13.keys,key_resp_13.corr,key_resp_13.rt,pfix_switches,Pside,ptrial_type1S0D,ptarget,pprobe,prac_resp.keys,prac_resp.corr,prac_resp.rt,prac_fix_resp.keys,prac_fix_resp.corr,pTrials.thisRepN,pTrials.thisTrialN,pTrials.thisN,pTrials.thisIndex,pTrials.ran,participant,design,position,date,expName,psychopyVersion,OS,frameRate,xResolution,yResolution,prac_fix_resp.rt,fix_switches,side,trial_type1S0D,target,probe,key_resp_3.keys,key_resp_4.keys,key_resp_5.keys,key_resp.keys,key_resp.corr,key_resp.rt,key_resp_6.keys,trials.thisRepN,trials.thisTrialN,trials.thisN,trials.thisIndex,trials.ran,key_resp_6.rt,key_resp_5.rt,blocks.thisRepN,blocks.thisTrialN,blocks.thisN,blocks.thisIndex,blocks.ran,block_type,instruction_text,key_resp_4.rt0.0589,0.0558,j,1,13.728335,,0,f,1,8.495495,0,0.15289262,0,Stimuli/nemo2.png,Stimuli/nemo2.png,f,1,1.38419,,1,0,0,0,0,1,MG,4,2,2020-11-15_22h32.34.325,configural_featural,2020.2.4,MacIntel,60,1440,900,,,,,,,,,,,,,,,,,,,,,,,,,,,,,,,,,,,,,,0,0.15289262,1,Stimuli/dory1.png,Stimuli/dory2.png,j,1,0.850965,,1,1,0,1,0,1,MG,4,2,2020-11-15_22h32.34.325,configural_featural,2020.2.4,MacIntel,60,1440,900,,,,,,,,,,,,,,,,,,,,,,,,,,,,,,,,,,,,,,0,0.15289262,0,Stimuli/nemo1.jpg,Stimuli/nemo1.jpg,f,1,0.8021,,1,2,0,2,0,1,MG,4,2,2020-11-15_22h32.34.325,configural_featural,2020.2.4,MacIntel,60,1440,900,,,,,,,,,,,,,,,,,,,,,,,,,,,,,,,,,,,,,,0,0.15289262,1,Stimuli/dory1.png,Stimuli/dory2.png,j,1,0.49489,,1,3,0,3,0,1,MG,4,2,2020-11-15_22h32.34.325,configural_featural,2020.2.4,MacIntel,60,1440,900,,,,,,,,,,,,,,,,,,,,,,,,,,,,,,,,,,,,,,1,0.15289262,0,Stimuli/dory2.png,Stimuli/dory2.png,f,1,1.067595,space,1,4,0,4,0,1,MG,4,2,2020-11-15_22h32.34.325,configural_featural,2020.2.4,MacIntel,60,1440,900,1.850235,,,,,,,,,,,,,,,,,,,,,,,,,,,,,,,,,,,,,0,0.15289262,1,Stimuli/nemo1.jpg,Stimuli/nemo2.png,j,1,0.58905,,1,5,0,5,0,1,MG,4,2,2020-11-15_22h32.34.325,configural_featural,2020.2.4,MacIntel,60,1440,900,,,,,,,,,,,,,,,,,,,,,,,,,,,,,,,,,,,,,,1,-0.15289262,0,Stimuli/nemo2.png,Stimuli/nemo2.png,f,1,0.667485,,0,6,0,6,0,1,MG,4,2,2020-11-15_22h32.34.325,configural_featural,2020.2.4,MacIntel,60,1440,900,,,,,,,,,,,,,,,,,,,,,,,,,,,,,,,,,,,,,,0,-0.15289262,1,Stimuli/nemo1.jpg,Stimuli/nemo2.png,j,1,0.99109,,1,7,0,7,0,1,MG,4,2,2020-11-15_22h32.34.325,configural_featural,2020.2.4,MacIntel,60,1440,900,,,,,,,,,,,,,,,,,,,,,,,,,,,,,,,,,,,,,,0,-0.15289262,0,Stimuli/dory2.png,Stimuli/dory2.png,f,1,0.52464,,1,8,0,8,0,1,MG,4,2,2020-11-15_22h32.34.325,configural_featural,2020.2.4,MacIntel,60,1440,900,,,,,,,,,,,,,,,,,,,,,,,,,,,,,,,,,,,,,,1,-0.15289262,1,Stimuli/nemo2.png,Stimuli/nemo1.jpg,j,1,0.317645,space,1,9,0,9,0,1,MG,4,2,2020-11-15_22h32.34.325,configural_featural,2020.2.4,MacIntel,60,1440,900,0.734815,,,,,,,,,,,,,,,,,,,,,,,,,,,,,,,,,,,,,0,-0.15289262,0,Stimuli/dory1.png,Stimuli/dory1.png,f,1,0.54015,,1,10,0,10,0,1,MG,4,2,2020-11-15_22h32.34.325,configural_featural,2020.2.4,MacIntel,60,1440,900,,,,,,,,,,,,,,,,,,,,,,,,,,,,,,,,,,,,,,0,-0.15289262,1,Stimuli/dory2.png,Stimuli/dory1.png,j,1,0.45127,,1,11,0,11,0,1,MG,4,2,2020-11-15_22h32.34.325,configural_featural,2020.2.4,MacIntel,60,1440,900,,,,,,,,,,,,,,,,,,,,,,,,,,,,,,,,,,,,,,,,,,,,,,,,,,,,,MG,4,2,2020-11-15_22h32.34.325,configural_featural,2020.2.4,MacIntel,60,1440,900,,0,-0.20374688,0,Stimuli/H7sim0.png,Stimuli/H8sim0.png,,,,f,0,1.076915,,0,0,0,0,1,,,,,,,,feat_haus,,,,,,,,,,,,,,,,,,,,,,,,,,,MG,4,2,2020-11-15_22h32.34.325,configural_featural,2020.2.4,MacIntel,60,1440,900,,0,0.20374688,0,Stimuli/H7sim0.png,Stimuli/H5sim0.png,,,,j,1,0.660255,,1,0,1,0,1,,,,,,,,feat_haus,,,,,,,,,,,,,,,,,,,,,,,,,,,MG,4,2,2020-11-15_22h32.34.325,configural_featural,2020.2.4,MacIntel,60,1440,900,,0,0.20374688,1,Stimuli/H7sim0.png,Stimuli/H7sim0.png,,,,f,1,0.4517,,2,0,2,0,1,,,,,,,,feat_haus,,,,,,,,,,,,,,,,,,,,,,,,,,,MG,4,2,2020-11-15_22h32.34.325,configural_featural,2020.2.4,MacIntel,60,1440,900,,0,-0.20374688,0,Stimuli/H6sim0.png,Stimuli/H7sim0.png,,,,f,0,0.699925,,3,0,3,0,1,,,,,,,,feat_haus,,,,,,,,,,,,,,,,,,,,,,,,,,,MG,4,2,2020-11-15_22h32.34.325,configural_featural,2020.2.4,MacIntel,60,1440,900,,1,-0.20374688,1,Stimuli/H8sim0.png,Stimuli/H8sim0.png,,,,f,1,13.33415,space,4,0,4,0,1,10.85072,,,,,,,feat_haus,,,,,,,,,,,,,,,,,,,,,,,,,,,MG,4,2,2020-11-15_22h32.34.325,configural_featural,2020.2.4,MacIntel,60,1440,900,,0,0.20374688,1,Stimuli/H5sim0.png,Stimuli/H5sim0.png,,,,f,1,0.71623,,5,0,5,0,1,,,,,,,,feat_haus,,,,,,,,,,,,,,,,,,,,,,,,,,,MG,4,2,2020-11-15_22h32.34.325,configural_featural,2020.2.4,MacIntel,60,1440,900,,0,-0.20374688,1,Stimuli/H6sim0.png,Stimuli/H6sim0.png,,,,f,1,0.55074,,6,0,6,0,1,,,,,,,,feat_haus,,,,,,,,,,,,,,,,,,,,,,,,,,,MG,4,2,2020-11-15_22h32.34.325,configural_featural,2020.2.4,MacIntel,60,1440,900,,0,0.20374688,1,Stimuli/H8sim0.png,Stimuli/H8sim0.png,,,,f,1,0.276805,,7,0,7,0,1,,,,,,,,feat_haus,,,,,,,,,,,,,,,,,,,,,,,,,,,MG,4,2,2020-11-15_22h32.34.325,configural_featural,2020.2.4,MacIntel,60,1440,900,,0,-0.20374688,1,Stimuli/H7sim0.png,Stimuli/H7sim0.png,,,,f,1,0.71009,,8,0,8,0,1,,,,,,,,feat_haus,,,,,,,,,,,,,,,,,,,,,,,,,,,MG,4,2,2020-11-15_22h32.34.325,configural_featural,2020.2.4,MacIntel,60,1440,900,,0,-0.20374688,0,Stimuli/H6sim0.png,Stimuli/H8sim0.png,,,,j,1,0.465395,,9,0,9,0,1,,,,,,,,feat_haus,,,,,,,,,,,,,,,,,,,,,,,,,,,MG,4,2,2020-11-15_22h32.34.325,configural_featural,2020.2.4,MacIntel,60,1440,900,,0,0.20374688,0,Stimuli/H6sim0.png,Stimuli/H5sim0.png,,,,j,1,1.23437,,10,0,10,0,1,,,,,,,,feat_haus,,,,,,,,,,,,,,,,,,,,,,,,,,,MG,4,2,2020-11-15_22h32.34.325,configural_featural,2020.2.4,MacIntel,60,1440,900,,0,-0.20374688,0,Stimuli/H6sim0.png,Stimuli/H5sim0.png,,,,j,1,0.61199,,11,0,11,0,1,,,,,,,,feat_haus,,,,,,,,,,,,,,,,,,,,,,,,,,,MG,4,2,2020-11-15_22h32.34.325,configural_featural,2020.2.4,MacIntel,60,1440,900,,0,-0.20374688,0,Stimuli/H8sim0.png,Stimuli/H7sim0.png,,,,j,1,0.46741,,12,0,12,0,1,,,,,,,,feat_haus,,,,,,,,,,,,,,,,,,,,,,,,,,,MG,4,2,2020-11-15_22h32.34.325,configural_featural,2020.2.4,MacIntel,60,1440,900,,1,-0.20374688,0,Stimuli/H7sim0.png,Stimuli/H5sim0.png,,,space,j,1,0.73646,,13,0,13,0,1,,0.1509,,,,,,feat_haus,,,,,,,,,,,,,,,,,,,,,,,,,,,MG,4,2,2020-11-15_22h32.34.325,configural_featural,2020.2.4,MacIntel,60,1440,900,,0,0.20374688,0,Stimuli/H6sim0.png,Stimuli/H8sim0.png,,,,j,1,0.43463,,14,0,14,0,1,,,,,,,,feat_haus,,,,,,,,,,,,,,,,,,,,,,,,,,,MG,4,2,2020-11-15_22h32.34.325,configural_featural,2020.2.4,MacIntel,60,1440,900,,0,0.20374688,1,Stimuli/H6sim0.png,Stimuli/H6sim0.png,,,,j,0,1.46114,space,15,0,15,0,1,0.135195,,,,,,,feat_haus,,,,,,,,,,,,,,,,,,,,,,,,,,,MG,4,2,2020-11-15_22h32.34.325,configural_featural,2020.2.4,MacIntel,60,1440,900,,0,-0.20374688,1,Stimuli/H5sim0.png,Stimuli/H5sim0.png,,,,f,1,0.451145,,16,0,16,0,1,,,,,,,,feat_haus,,,,,,,,,,,,,,,,,,,,,,,,,,,MG,4,2,2020-11-15_22h32.34.325,configural_featural,2020.2.4,MacIntel,60,1440,900,,0,-0.20374688,1,Stimuli/H5sim0.png,Stimuli/H5sim0.png,,,,f,1,0.35459,,17,0,17,0,1,,,,,,,,feat_haus,,,,,,,,,,,,,,,,,,,,,,,,,,,MG,4,2,2020-11-15_22h32.34.325,configural_featural,2020.2.4,MacIntel,60,1440,900,,0,-0.20374688,0,Stimuli/H5sim0.png,Stimuli/H7sim0.png,,,,j,1,0.32066,,18,0,18,0,1,,,,,,,,feat_haus,,,,,,,,,,,,,,,,,,,,,,,,,,,MG,4,2,2020-11-15_22h32.34.325,configural_featural,2020.2.4,MacIntel,60,1440,900,,0,0.20374688,1,Stimuli/H6sim0.png,Stimuli/H6sim0.png,,,,f,1,0.718115,,19,0,19,0,1,,,,,,,,feat_haus,,,,,,,,,,,,,,,,,,,,,,,,,,,MG,4,2,2020-11-15_22h32.34.325,configural_featural,2020.2.4,MacIntel,60,1440,900,,0,-0.20374688,1,Stimuli/H7sim0.png,Stimuli/H7sim0.png,,,,f,1,0.62681,,20,0,20,0,1,,,,,,,,feat_haus,,,,,,,,,,,,,,,,,,,,,,,,,,,MG,4,2,2020-11-15_22h32.34.325,configural_featural,2020.2.4,MacIntel,60,1440,900,,0,-0.20374688,1,Stimuli/H6sim0.png,Stimuli/H6sim0.png,,,,f,1,0.85095,,21,0,21,0,1,,,,,,,,feat_haus,,,,,,,,,,,,,,,,,,,,,,,,,,,MG,4,2,2020-11-15_22h32.34.325,configural_featural,2020.2.4,MacIntel,60,1440,900,,1,-0.20374688,0,Stimuli/H7sim0.png,Stimuli/H6sim0.png,,,,f,0,1.221915,space,22,0,22,0,1,0.19475,,,,,,,feat_haus,,,,,,,,,,,,,,,,,,,,,,,,,,,MG,4,2,2020-11-15_22h32.34.325,configural_featural,2020.2.4,MacIntel,60,1440,900,,0,0.20374688,0,Stimuli/H5sim0.png,Stimuli/H8sim0.png,,,,j,1,0.564025,,23,0,23,0,1,,,,,,,,feat_haus,,,,,,,,,,,,,,,,,,,,,,,,,,,MG,4,2,2020-11-15_22h32.34.325,configural_featural,2020.2.4,MacIntel,60,1440,900,,0,0.20374688,1,Stimuli/H5sim0.png,Stimuli/H5sim0.png,,,,f,1,0.53452,,24,0,24,0,1,,,,,,,,feat_haus,,,,,,,,,,,,,,,,,,,,,,,,,,,MG,4,2,2020-11-15_22h32.34.325,configural_featural,2020.2.4,MacIntel,60,1440,900,,1,0.20374688,0,Stimuli/H5sim0.png,Stimuli/H6sim0.png,,,space,f,0,0.934755,,25,0,25,0,1,,0.10004,,,,,,feat_haus,,,,,,,,,,,,,,,,,,,,,,,,,,,MG,4,2,2020-11-15_22h32.34.325,configural_featural,2020.2.4,MacIntel,60,1440,900,,0,-0.20374688,1,Stimuli/H8sim0.png,Stimuli/H8sim0.png,,,,f,1,0.386145,,26,0,26,0,1,,,,,,,,feat_haus,,,,,,,,,,,,,,,,,,,,,,,,,,,MG,4,2,2020-11-15_22h32.34.325,configural_featural,2020.2.4,MacIntel,60,1440,900,,0,0.20374688,0,Stimuli/H8sim0.png,Stimuli/H5sim0.png,,,,j,1,0.46713,,27,0,27,0,1,,,,,,,,feat_haus,,,,,,,,,,,,,,,,,,,,,,,,,,,MG,4,2,2020-11-15_22h32.34.325,configural_featural,2020.2.4,MacIntel,60,1440,900,,0,-0.20374688,0,Stimuli/H8sim0.png,Stimuli/H5sim0.png,,,,j,1,0.549795,,28,0,28,0,1,,,,,,,,feat_haus,,,,,,,,,,,,,,,,,,,,,,,,,,,MG,4,2,2020-11-15_22h32.34.325,configural_featural,2020.2.4,MacIntel,60,1440,900,,1,0.20374688,1,Stimuli/H8sim0.png,Stimuli/H8sim0.png,,,space,f,1,0.966915,,29,0,29,0,1,,0.08435,,,,,,feat_haus,,,,,,,,,,,,,,,,,,,,,,,,,,,MG,4,2,2020-11-15_22h32.34.325,configural_featural,2020.2.4,MacIntel,60,1440,900,,0,0.20374688,1,Stimuli/H7sim0.png,Stimuli/H7sim0.png,,,,f,1,0.48387,,30,0,30,0,1,,,,,,,,feat_haus,,,,,,,,,,,,,,,,,,,,,,,,,,,MG,4,2,2020-11-15_22h32.34.325,configural_featural,2020.2.4,MacIntel,60,1440,900,,0,0.20374688,1,Stimuli/H8sim0.png,Stimuli/H8sim0.png,,,,f,1,0.418245,,31,0,31,0,1,,,,,,,,feat_haus,,,,,,,,,,,,,,,,,,,,,,,,,,,MG,4,2,2020-11-15_22h32.34.325,configural_featural,2020.2.4,MacIntel,60,1440,900,,0,0.20374688,1,Stimuli/H6sim0.png,Stimuli/H6sim0.png,,,,f,1,0.378,,32,0,32,0,1,,,,,,,,feat_haus,,,,,,,,,,,,,,,,,,,,,,,,,,,MG,4,2,2020-11-15_22h32.34.325,configural_featural,2020.2.4,MacIntel,60,1440,900,,0,-0.20374688,0,Stimuli/H5sim0.png,Stimuli/H8sim0.png,,,,f,0,0.31707,,33,0,33,0,1,,,,,,,,feat_haus,,,,,,,,,,,,,,,,,,,,,,,,,,,MG,4,2,2020-11-15_22h32.34.325,configural_featural,2020.2.4,MacIntel,60,1440,900,,0,0.20374688,0,Stimuli/H8sim0.png,Stimuli/H7sim0.png,,,,f,0,1.10251,space,34,0,34,0,1,0.48337,,,,,,,feat_haus,,,,,,,,,,,,,,,,,,,,,,,,,,,MG,4,2,2020-11-15_22h32.34.325,configural_featural,2020.2.4,MacIntel,60,1440,900,,0,0.20374688,0,Stimuli/H7sim0.png,Stimuli/H6sim0.png,,,,f,0,0.487295,,35,0,35,0,1,,,,,,,,feat_haus,,,,,,,,,,,,,,,,,,,,,,,,,,,MG,4,2,2020-11-15_22h32.34.325,configural_featural,2020.2.4,MacIntel,60,1440,900,,0,0.20374688,0,Stimuli/H6sim0.png,Stimuli/H7sim0.png,,,,f,0,0.614855,,36,0,36,0,1,,,,,,,,feat_haus,,,,,,,,,,,,,,,,,,,,,,,,,,,MG,4,2,2020-11-15_22h32.34.325,configural_featural,2020.2.4,MacIntel,60,1440,900,,0,-0.20374688,1,Stimuli/H8sim0.png,Stimuli/H8sim0.png,,,,f,1,0.587025,,37,0,37,0,1,,,,,,,,feat_haus,,,,,,,,,,,,,,,,,,,,,,,,,,,MG,4,2,2020-11-15_22h32.34.325,configural_featural,2020.2.4,MacIntel,60,1440,900,,0,-0.20374688,1,Stimuli/H7sim0.png,Stimuli/H7sim0.png,,,,f,1,0.716455,,38,0,38,0,1,,,,,,,,feat_haus,,,,,,,,,,,,,,,,,,,,,,,,,,,MG,4,2,2020-11-15_22h32.34.325,configural_featural,2020.2.4,MacIntel,60,1440,900,,0,0.20374688,0,Stimuli/H7sim0.png,Stimuli/H8sim0.png,,,,j,1,0.41322,,39,0,39,0,1,,,,,,,,feat_haus,,,,,,,,,,,,,,,,,,,,,,,,,,,MG,4,2,2020-11-15_22h32.34.325,configural_featural,2020.2.4,MacIntel,60,1440,900,,0,0.20374688,1,Stimuli/H7sim0.png,Stimuli/H7sim0.png,,,,f,1,0.48379,,40,0,40,0,1,,,,,,,,feat_haus,,,,,,,,,,,,,,,,,,,,,,,,,,,MG,4,2,2020-11-15_22h32.34.325,configural_featural,2020.2.4,MacIntel,60,1440,900,,0,0.20374688,0,Stimuli/H5sim0.png,Stimuli/H7sim0.png,,,,j,1,0.320865,,41,0,41,0,1,,,,,,,,feat_haus,,,,,,,,,,,,,,,,,,,,,,,,,,,MG,4,2,2020-11-15_22h32.34.325,configural_featural,2020.2.4,MacIntel,60,1440,900,,1,-0.20374688,0,Stimuli/H5sim0.png,Stimuli/H6sim0.png,,,,f,0,0.76928,space,42,0,42,0,1,0.11923,,,,,,,feat_haus,,,,,,,,,,,,,,,,,,,,,,,,,,,MG,4,2,2020-11-15_22h32.34.325,configural_featural,2020.2.4,MacIntel,60,1440,900,,0,-0.20374688,0,Stimuli/H8sim0.png,Stimuli/H6sim0.png,,,,f,0,0.134415,,43,0,43,0,1,,,,,,,,feat_haus,,,,,,,,,,,,,,,,,,,,,,,,,,,MG,4,2,2020-11-15_22h32.34.325,configural_featural,2020.2.4,MacIntel,60,1440,900,,0,0.20374688,0,Stimuli/H8sim0.png,Stimuli/H6sim0.png,,,,f,0,0.232525,,44,0,44,0,1,,,,,,,,feat_haus,,,,,,,,,,,,,,,,,,,,,,,,,,,MG,4,2,2020-11-15_22h32.34.325,configural_featural,2020.2.4,MacIntel,60,1440,900,,0,-0.20374688,1,Stimuli/H5sim0.png,Stimuli/H5sim0.png,,,,f,1,0.231265,,45,0,45,0,1,,,,,,,,feat_haus,,,,,,,,,,,,,,,,,,,,,,,,,,,MG,4,2,2020-11-15_22h32.34.325,configural_featural,2020.2.4,MacIntel,60,1440,900,,0,0.20374688,1,Stimuli/H5sim0.png,Stimuli/H5sim0.png,,,,f,1,0.167345,,46,0,46,0,1,,,,,,,,feat_haus,,,,,,,,,,,,,,,,,,,,,,,,,,,MG,4,2,2020-11-15_22h32.34.325,configural_featural,2020.2.4,MacIntel,60,1440,900,,0,-0.20374688,1,Stimuli/H6sim0.png,Stimuli/H6sim0.png,,,,f,1,0.184235,,47,0,47,0,1,,,,,,,,feat_haus,,,,,,,,,,,,,,,,,,,,,,,,,,,MG,4,2,2020-11-15_22h32.34.325,configural_featural,2020.2.4,MacIntel,60,1440,900,,,,,,,,,,,,,,,,,,,,,0,0,0,0,1,feat_haus,Designs/instructions_haus_1234.png,,,,,,,,,,,,,,,,,,,,,,,,,,MG,4,2,2020-11-15_22h32.34.325,configural_featural,2020.2.4,MacIntel,60,1440,900,,0,0.20374688,0,Stimuli/f15.png,Stimuli/f131.png,,,,f,0,1.100575,,0,0,0,0,1,,,,,,,,feat_face,,,,,,,,,,,,,,,,,,,,,,,,,,,MG,4,2,2020-11-15_22h32.34.325,configural_featural,2020.2.4,MacIntel,60,1440,900,,0,-0.20374688,0,Stimuli/f15.png,Stimuli/f142.png,,,,j,1,0.66691,,1,0,1,0,1,,,,,,,,feat_face,,,,,,,,,,,,,,,,,,,,,,,,,,,MG,4,2,2020-11-15_22h32.34.325,configural_featural,2020.2.4,MacIntel,60,1440,900,,0,0.20374688,1,Stimuli/f24.png,Stimuli/f24.png,,,,f,1,0.546085,,2,0,2,0,1,,,,,,,,feat_face,,,,,,,,,,,,,,,,,,,,,,,,,,,MG,4,2,2020-11-15_22h32.34.325,configural_featural,2020.2.4,MacIntel,60,1440,900,,1,-0.20374688,0,Stimuli/f15.png,Stimuli/f24.png,,,,f,0,0.716605,space,3,0,3,0,1,0.004445,,,,,,,feat_face,,,,,,,,,,,,,,,,,,,,,,,,,,,MG,4,2,2020-11-15_22h32.34.325,configural_featural,2020.2.4,MacIntel,60,1440,900,,0,-0.20374688,1,Stimuli/f142.png,Stimuli/f142.png,,,,f,1,0.21108,,4,0,4,0,1,,,,,,,,feat_face,,,,,,,,,,,,,,,,,,,,,,,,,,,MG,4,2,2020-11-15_22h32.34.325,configural_featural,2020.2.4,MacIntel,60,1440,900,,0,-0.20374688,1,Stimuli/f15.png,Stimuli/f15.png,,,,f,1,0.40117,,5,0,5,0,1,,,,,,,,feat_face,,,,,,,,,,,,,,,,,,,,,,,,,,,MG,4,2,2020-11-15_22h32.34.325,configural_featural,2020.2.4,MacIntel,60,1440,900,,0,-0.20374688,0,Stimuli/f142.png,Stimuli/f24.png,,,,f,0,0.252235,,6,0,6,0,1,,,,,,,,feat_face,,,,,,,,,,,,,,,,,,,,,,,,,,,MG,4,2,2020-11-15_22h32.34.325,configural_featural,2020.2.4,MacIntel,60,1440,900,,1,-0.20374688,0,Stimuli/f142.png,Stimuli/f131.png,,,space,f,0,0.82728,,7,0,7,0,1,,0.059035,,,,,,feat_face,,,,,,,,,,,,,,,,,,,,,,,,,,,MG,4,2,2020-11-15_22h32.34.325,configural_featural,2020.2.4,MacIntel,60,1440,900,,0,0.20374688,1,Stimuli/f142.png,Stimuli/f142.png,,,,f,1,0.56793,,8,0,8,0,1,,,,,,,,feat_face,,,,,,,,,,,,,,,,,,,,,,,,,,,MG,4,2,2020-11-15_22h32.34.325,configural_featural,2020.2.4,MacIntel,60,1440,900,,0,-0.20374688,1,Stimuli/f131.png,Stimuli/f131.png,,,,f,1,0.49985,,9,0,9,0,1,,,,,,,,feat_face,,,,,,,,,,,,,,,,,,,,,,,,,,,MG,4,2,2020-11-15_22h32.34.325,configural_featural,2020.2.4,MacIntel,60,1440,900,,0,-0.20374688,0,Stimuli/f131.png,Stimuli/f142.png,,,,f,0,0.45063,,10,0,10,0,1,,,,,,,,feat_face,,,,,,,,,,,,,,,,,,,,,,,,,,,MG,4,2,2020-11-15_22h32.34.325,configural_featural,2020.2.4,MacIntel,60,1440,900,,0,0.20374688,1,Stimuli/f131.png,Stimuli/f131.png,,,,f,1,0.810725,,11,0,11,0,1,,,,,,,,feat_face,,,,,,,,,,,,,,,,,,,,,,,,,,,MG,4,2,2020-11-15_22h32.34.325,configural_featural,2020.2.4,MacIntel,60,1440,900,,0,0.20374688,1,Stimuli/f15.png,Stimuli/f15.png,,,,j,0,0.635295,,12,0,12,0,1,,,,,,,,feat_face,,,,,,,,,,,,,,,,,,,,,,,,,,,MG,4,2,2020-11-15_22h32.34.325,configural_featural,2020.2.4,MacIntel,60,1440,900,,0,-0.20374688,1,Stimuli/f24.png,Stimuli/f24.png,,,,f,1,1.00091,,13,0,13,0,1,,,,,,,,feat_face,,,,,,,,,,,,,,,,,,,,,,,,,,,MG,4,2,2020-11-15_22h32.34.325,configural_featural,2020.2.4,MacIntel,60,1440,900,,0,0.20374688,0,Stimuli/f142.png,Stimuli/f15.png,,,,j,1,0.483835,,14,0,14,0,1,,,,,,,,feat_face,,,,,,,,,,,,,,,,,,,,,,,,,,,MG,4,2,2020-11-15_22h32.34.325,configural_featural,2020.2.4,MacIntel,60,1440,900,,0,0.20374688,0,Stimuli/f131.png,Stimuli/f15.png,,,,j,1,0.594995,,15,0,15,0,1,,,,,,,,feat_face,,,,,,,,,,,,,,,,,,,,,,,,,,,MG,4,2,2020-11-15_22h32.34.325,configural_featural,2020.2.4,MacIntel,60,1440,900,,0,-0.20374688,1,Stimuli/f15.png,Stimuli/f15.png,,,,f,1,0.74484,,16,0,16,0,1,,,,,,,,feat_face,,,,,,,,,,,,,,,,,,,,,,,,,,,MG,4,2,2020-11-15_22h32.34.325,configural_featural,2020.2.4,MacIntel,60,1440,900,,0,0.20374688,0,Stimuli/f24.png,Stimuli/f15.png,,,,f,0,0.31656,,17,0,17,0,1,,,,,,,,feat_face,,,,,,,,,,,,,,,,,,,,,,,,,,,MG,4,2,2020-11-15_22h32.34.325,configural_featural,2020.2.4,MacIntel,60,1440,900,,0,0.20374688,1,Stimuli/f131.png,Stimuli/f131.png,,,,f,1,0.22799,,18,0,18,0,1,,,,,,,,feat_face,,,,,,,,,,,,,,,,,,,,,,,,,,,MG,4,2,2020-11-15_22h32.34.325,configural_featural,2020.2.4,MacIntel,60,1440,900,,1,-0.20374688,0,Stimuli/f24.png,Stimuli/f131.png,,,space,f,0,0.667105,,19,0,19,0,1,,0.13724,,,,,,feat_face,,,,,,,,,,,,,,,,,,,,,,,,,,,MG,4,2,2020-11-15_22h32.34.325,configural_featural,2020.2.4,MacIntel,60,1440,900,,0,0.20374688,0,Stimuli/f15.png,Stimuli/f142.png,,,,f,0,0.97745,,20,0,20,0,1,,,,,,,,feat_face,,,,,,,,,,,,,,,,,,,,,,,,,,,MG,4,2,2020-11-15_22h32.34.325,configural_featural,2020.2.4,MacIntel,60,1440,900,,0,0.20374688,1,Stimuli/f142.png,Stimuli/f142.png,,,,j,0,0.762035,,21,0,21,0,1,,,,,,,,feat_face,,,,,,,,,,,,,,,,,,,,,,,,,,,MG,4,2,2020-11-15_22h32.34.325,configural_featural,2020.2.4,MacIntel,60,1440,900,,0,0.20374688,0,Stimuli/f142.png,Stimuli/f24.png,,,,f,0,0.816425,,22,0,22,0,1,,,,,,,,feat_face,,,,,,,,,,,,,,,,,,,,,,,,,,,MG,4,2,2020-11-15_22h32.34.325,configural_featural,2020.2.4,MacIntel,60,1440,900,,0,0.20374688,1,Stimuli/f15.png,Stimuli/f15.png,,,,f,1,0.50075,,23,0,23,0,1,,,,,,,,feat_face,,,,,,,,,,,,,,,,,,,,,,,,,,,MG,4,2,2020-11-15_22h32.34.325,configural_featural,2020.2.4,MacIntel,60,1440,900,,0,0.20374688,0,Stimuli/f24.png,Stimuli/f131.png,,,,f,0,0.36759,,24,0,24,0,1,,,,,,,,feat_face,,,,,,,,,,,,,,,,,,,,,,,,,,,MG,4,2,2020-11-15_22h32.34.325,configural_featural,2020.2.4,MacIntel,60,1440,900,,0,0.20374688,1,Stimuli/f24.png,Stimuli/f24.png,,,,f,1,0.43473,,25,0,25,0,1,,,,,,,,feat_face,,,,,,,,,,,,,,,,,,,,,,,,,,,MG,4,2,2020-11-15_22h32.34.325,configural_featural,2020.2.4,MacIntel,60,1440,900,,0,-0.20374688,1,Stimuli/f24.png,Stimuli/f24.png,,,,f,1,0.818655,,26,0,26,0,1,,,,,,,,feat_face,,,,,,,,,,,,,,,,,,,,,,,,,,,MG,4,2,2020-11-15_22h32.34.325,configural_featural,2020.2.4,MacIntel,60,1440,900,,0,0.20374688,1,Stimuli/f131.png,Stimuli/f131.png,,,,f,1,0.435255,,27,0,27,0,1,,,,,,,,feat_face,,,,,,,,,,,,,,,,,,,,,,,,,,,MG,4,2,2020-11-15_22h32.34.325,configural_featural,2020.2.4,MacIntel,60,1440,900,,0,-0.20374688,0,Stimuli/f142.png,Stimuli/f15.png,,,,f,0,0.800615,,28,0,28,0,1,,,,,,,,feat_face,,,,,,,,,,,,,,,,,,,,,,,,,,,MG,4,2,2020-11-15_22h32.34.325,configural_featural,2020.2.4,MacIntel,60,1440,900,,1,-0.20374688,0,Stimuli/f24.png,Stimuli/f142.png,,,space,f,0,0.6667,,29,0,29,0,1,,0.146825,,,,,,feat_face,,,,,,,,,,,,,,,,,,,,,,,,,,,MG,4,2,2020-11-15_22h32.34.325,configural_featural,2020.2.4,MacIntel,60,1440,900,,0,-0.20374688,0,Stimuli/f131.png,Stimuli/f15.png,,,,j,1,0.59993,,30,0,30,0,1,,,,,,,,feat_face,,,,,,,,,,,,,,,,,,,,,,,,,,,MG,4,2,2020-11-15_22h32.34.325,configural_featural,2020.2.4,MacIntel,60,1440,900,,0,-0.20374688,1,Stimuli/f142.png,Stimuli/f142.png,,,,f,1,0.585055,,31,0,31,0,1,,,,,,,,feat_face,,,,,,,,,,,,,,,,,,,,,,,,,,,MG,4,2,2020-11-15_22h32.34.325,configural_featural,2020.2.4,MacIntel,60,1440,900,,0,0.20374688,0,Stimuli/f131.png,Stimuli/f142.png,,,,f,0,0.367165,,32,0,32,0,1,,,,,,,,feat_face,,,,,,,,,,,,,,,,,,,,,,,,,,,MG,4,2,2020-11-15_22h32.34.325,configural_featural,2020.2.4,MacIntel,60,1440,900,,0,-0.20374688,0,Stimuli/f15.png,Stimuli/f131.png,,,,f,0,0.17978,,33,0,33,0,1,,,,,,,,feat_face,,,,,,,,,,,,,,,,,,,,,,,,,,,MG,4,2,2020-11-15_22h32.34.325,configural_featural,2020.2.4,MacIntel,60,1440,900,,1,0.20374688,1,Stimuli/f142.png,Stimuli/f142.png,,,,f,1,0.5174,space,34,0,34,0,1,0.06517,,,,,,,feat_face,,,,,,,,,,,,,,,,,,,,,,,,,,,MG,4,2,2020-11-15_22h32.34.325,configural_featural,2020.2.4,MacIntel,60,1440,900,,0,-0.20374688,1,Stimuli/f131.png,Stimuli/f131.png,,,,f,1,0.25075,,35,0,35,0,1,,,,,,,,feat_face,,,,,,,,,,,,,,,,,,,,,,,,,,,MG,4,2,2020-11-15_22h32.34.325,configural_featural,2020.2.4,MacIntel,60,1440,900,,1,-0.20374688,1,Stimuli/f142.png,Stimuli/f142.png,,,,f,1,0.48336,space,36,0,36,0,1,0.184565,,,,,,,feat_face,,,,,,,,,,,,,,,,,,,,,,,,,,,MG,4,2,2020-11-15_22h32.34.325,configural_featural,2020.2.4,MacIntel,60,1440,900,,0,0.20374688,0,Stimuli/f24.png,Stimuli/f142.png,,,,f,0,0.35152,,37,0,37,0,1,,,,,,,,feat_face,,,,,,,,,,,,,,,,,,,,,,,,,,,MG,4,2,2020-11-15_22h32.34.325,configural_featural,2020.2.4,MacIntel,60,1440,900,,0,-0.20374688,1,Stimuli/f24.png,Stimuli/f24.png,,,,f,1,0.40072,,38,0,38,0,1,,,,,,,,feat_face,,,,,,,,,,,,,,,,,,,,,,,,,,,MG,4,2,2020-11-15_22h32.34.325,configural_featural,2020.2.4,MacIntel,60,1440,900,,0,0.20374688,0,Stimuli/f15.png,Stimuli/f24.png,,,,f,0,0.433455,,39,0,39,0,1,,,,,,,,feat_face,,,,,,,,,,,,,,,,,,,,,,,,,,,MG,4,2,2020-11-15_22h32.34.325,configural_featural,2020.2.4,MacIntel,60,1440,900,,0,-0.20374688,1,Stimuli/f131.png,Stimuli/f131.png,,,,f,1,0.26705,,40,0,40,0,1,,,,,,,,feat_face,,,,,,,,,,,,,,,,,,,,,,,,,,,MG,4,2,2020-11-15_22h32.34.325,configural_featural,2020.2.4,MacIntel,60,1440,900,,0,-0.20374688,0,Stimuli/f131.png,Stimuli/f24.png,,,,f,0,0.26043,,41,0,41,0,1,,,,,,,,feat_face,,,,,,,,,,,,,,,,,,,,,,,,,,,MG,4,2,2020-11-15_22h32.34.325,configural_featural,2020.2.4,MacIntel,60,1440,900,,0,0.20374688,0,Stimuli/f131.png,Stimuli/f24.png,,,,f,0,0.26808,,42,0,42,0,1,,,,,,,,feat_face,,,,,,,,,,,,,,,,,,,,,,,,,,,MG,4,2,2020-11-15_22h32.34.325,configural_featural,2020.2.4,MacIntel,60,1440,900,,0,-0.20374688,1,Stimuli/f15.png,Stimuli/f15.png,,,,f,1,0.377845,,43,0,43,0,1,,,,,,,,feat_face,,,,,,,,,,,,,,,,,,,,,,,,,,,MG,4,2,2020-11-15_22h32.34.325,configural_featural,2020.2.4,MacIntel,60,1440,900,,0,0.20374688,0,Stimuli/f142.png,Stimuli/f131.png,,,,f,0,0.2777,,44,0,44,0,1,,,,,,,,feat_face,,,,,,,,,,,,,,,,,,,,,,,,,,,MG,4,2,2020-11-15_22h32.34.325,configural_featural,2020.2.4,MacIntel,60,1440,900,,0,0.20374688,1,Stimuli/f15.png,Stimuli/f15.png,,,,f,1,0.353455,,45,0,45,0,1,,,,,,,,feat_face,,,,,,,,,,,,,,,,,,,,,,,,,,,MG,4,2,2020-11-15_22h32.34.325,configural_featural,2020.2.4,MacIntel,60,1440,900,,0,0.20374688,1,Stimuli/f24.png,Stimuli/f24.png,,,,f,1,0.68407,,46,0,46,0,1,,,,,,,,feat_face,,,,,,,,,,,,,,,,,,,,,,,,,,,MG,4,2,2020-11-15_22h32.34.325,configural_featural,2020.2.4,MacIntel,60,1440,900,,0,-0.20374688,0,Stimuli/f24.png,Stimuli/f15.png,,,,f,0,0.468625,,47,0,47,0,1,,,,,,,,feat_face,,,,,,,,,,,,,,,,,,,,,,,,,,,MG,4,2,2020-11-15_22h32.34.325,configural_featural,2020.2.4,MacIntel,60,1440,900,,,,,,,,,,,,,,,,,,,,,0,1,1,1,1,feat_face,Designs/instructions_face_1234.png,,,,,,,,,,,,,,,,,,,,,,,,,,MG,4,2,2020-11-15_22h32.34.325,configural_featural,2020.2.4,MacIntel,60,1440,900,,0,0.20374688,1,Stimuli/H-8sim1.png,Stimuli/H-8sim1.png,,,,f,1,0.50054,,0,0,0,0,1,,,,,,,,conf_haus,,,,,,,,,,,,,,,,,,,,,,,,,,,MG,4,2,2020-11-15_22h32.34.325,configural_featural,2020.2.4,MacIntel,60,1440,900,,0,-0.20374688,0,Stimuli/H-8sim2.png,Stimuli/H-8sim3.png,,,,f,0,0.293625,,1,0,1,0,1,,,,,,,,conf_haus,,,,,,,,,,,,,,,,,,,,,,,,,,,MG,4,2,2020-11-15_22h32.34.325,configural_featural,2020.2.4,MacIntel,60,1440,900,,0,0.20374688,0,Stimuli/H-8sim3.png,Stimuli/H-8sim0.png,,,,j,1,0.49623,,2,0,2,0,1,,,,,,,,conf_haus,,,,,,,,,,,,,,,,,,,,,,,,,,,MG,4,2,2020-11-15_22h32.34.325,configural_featural,2020.2.4,MacIntel,60,1440,900,,0,-0.20374688,0,Stimuli/H-8sim0.png,Stimuli/H-8sim3.png,,,,f,0,0.570925,,3,0,3,0,1,,,,,,,,conf_haus,,,,,,,,,,,,,,,,,,,,,,,,,,,MG,4,2,2020-11-15_22h32.34.325,configural_featural,2020.2.4,MacIntel,60,1440,900,,0,0.20374688,1,Stimuli/H-8sim3.png,Stimuli/H-8sim3.png,,,,f,1,0.501315,,4,0,4,0,1,,,,,,,,conf_haus,,,,,,,,,,,,,,,,,,,,,,,,,,,MG,4,2,2020-11-15_22h32.34.325,configural_featural,2020.2.4,MacIntel,60,1440,900,,0,-0.20374688,1,Stimuli/H-8sim2.png,Stimuli/H-8sim2.png,,,,f,1,0.702425,,5,0,5,0,1,,,,,,,,conf_haus,,,,,,,,,,,,,,,,,,,,,,,,,,,MG,4,2,2020-11-15_22h32.34.325,configural_featural,2020.2.4,MacIntel,60,1440,900,,0,-0.20374688,0,Stimuli/H-8sim1.png,Stimuli/H-8sim2.png,,,,f,0,0.65058,,6,0,6,0,1,,,,,,,,conf_haus,,,,,,,,,,,,,,,,,,,,,,,,,,,MG,4,2,2020-11-15_22h32.34.325,configural_featural,2020.2.4,MacIntel,60,1440,900,,0,-0.20374688,1,Stimuli/H-8sim3.png,Stimuli/H-8sim3.png,,,,f,1,0.401275,,7,0,7,0,1,,,,,,,,conf_haus,,,,,,,,,,,,,,,,,,,,,,,,,,,MG,4,2,2020-11-15_22h32.34.325,configural_featural,2020.2.4,MacIntel,60,1440,900,,0,-0.20374688,1,Stimuli/H-8sim0.png,Stimuli/H-8sim0.png,,,,f,1,0.47783,,8,0,8,0,1,,,,,,,,conf_haus,,,,,,,,,,,,,,,,,,,,,,,,,,,MG,4,2,2020-11-15_22h32.34.325,configural_featural,2020.2.4,MacIntel,60,1440,900,,0,-0.20374688,0,Stimuli/H-8sim2.png,Stimuli/H-8sim1.png,,,,f,0,0.431325,,9,0,9,0,1,,,,,,,,conf_haus,,,,,,,,,,,,,,,,,,,,,,,,,,,MG,4,2,2020-11-15_22h32.34.325,configural_featural,2020.2.4,MacIntel,60,1440,900,,0,0.20374688,1,Stimuli/H-8sim0.png,Stimuli/H-8sim0.png,,,,f,1,0.51743,,10,0,10,0,1,,,,,,,,conf_haus,,,,,,,,,,,,,,,,,,,,,,,,,,,MG,4,2,2020-11-15_22h32.34.325,configural_featural,2020.2.4,MacIntel,60,1440,900,,0,0.20374688,0,Stimuli/H-8sim2.png,Stimuli/H-8sim1.png,,,,f,0,0.686555,,11,0,11,0,1,,,,,,,,conf_haus,,,,,,,,,,,,,,,,,,,,,,,,,,,MG,4,2,2020-11-15_22h32.34.325,configural_featural,2020.2.4,MacIntel,60,1440,900,,1,0.20374688,1,Stimuli/H-8sim2.png,Stimuli/H-8sim2.png,,,,f,1,5.97687,space,12,0,12,0,1,5.351105,,,,,,,conf_haus,,,,,,,,,,,,,,,,,,,,,,,,,,,MG,4,2,2020-11-15_22h32.34.325,configural_featural,2020.2.4,MacIntel,60,1440,900,,0,0.20374688,0,Stimuli/H-8sim3.png,Stimuli/H-8sim1.png,,,,j,1,0.46771,,13,0,13,0,1,,,,,,,,conf_haus,,,,,,,,,,,,,,,,,,,,,,,,,,,MG,4,2,2020-11-15_22h32.34.325,configural_featural,2020.2.4,MacIntel,60,1440,900,,0,-0.20374688,1,Stimuli/H-8sim1.png,Stimuli/H-8sim1.png,,,,f,1,0.518035,,14,0,14,0,1,,,,,,,,conf_haus,,,,,,,,,,,,,,,,,,,,,,,,,,,MG,4,2,2020-11-15_22h32.34.325,configural_featural,2020.2.4,MacIntel,60,1440,900,,0,-0.20374688,0,Stimuli/H-8sim1.png,Stimuli/H-8sim0.png,,,,j,1,0.46341,,15,0,15,0,1,,,,,,,,conf_haus,,,,,,,,,,,,,,,,,,,,,,,,,,,MG,4,2,2020-11-15_22h32.34.325,configural_featural,2020.2.4,MacIntel,60,1440,900,,0,0.20374688,1,Stimuli/H-8sim3.png,Stimuli/H-8sim3.png,,,,f,1,0.518695,,16,0,16,0,1,,,,,,,,conf_haus,,,,,,,,,,,,,,,,,,,,,,,,,,,MG,4,2,2020-11-15_22h32.34.325,configural_featural,2020.2.4,MacIntel,60,1440,900,,0,0.20374688,0,Stimuli/H-8sim1.png,Stimuli/H-8sim0.png,,,,j,1,0.401665,,17,0,17,0,1,,,,,,,,conf_haus,,,,,,,,,,,,,,,,,,,,,,,,,,,MG,4,2,2020-11-15_22h32.34.325,configural_featural,2020.2.4,MacIntel,60,1440,900,,0,-0.20374688,0,Stimuli/H-8sim3.png,Stimuli/H-8sim2.png,,,,j,1,1.83276,,18,0,18,0,1,,,,,,,,conf_haus,,,,,,,,,,,,,,,,,,,,,,,,,,,MG,4,2,2020-11-15_22h32.34.325,configural_featural,2020.2.4,MacIntel,60,1440,900,,0,0.20374688,1,Stimuli/H-8sim2.png,Stimuli/H-8sim2.png,,,,f,1,0.983145,,19,0,19,0,1,,,,,,,,conf_haus,,,,,,,,,,,,,,,,,,,,,,,,,,,MG,4,2,2020-11-15_22h32.34.325,configural_featural,2020.2.4,MacIntel,60,1440,900,,0,0.20374688,0,Stimuli/H-8sim0.png,Stimuli/H-8sim2.png,,,,j,1,0.499105,,20,0,20,0,1,,,,,,,,conf_haus,,,,,,,,,,,,,,,,,,,,,,,,,,,MG,4,2,2020-11-15_22h32.34.325,configural_featural,2020.2.4,MacIntel,60,1440,900,,0,-0.20374688,0,Stimuli/H-8sim1.png,Stimuli/H-8sim3.png,,,,f,0,0.684445,,21,0,21,0,1,,,,,,,,conf_haus,,,,,,,,,,,,,,,,,,,,,,,,,,,MG,4,2,2020-11-15_22h32.34.325,configural_featural,2020.2.4,MacIntel,60,1440,900,,0,-0.20374688,1,Stimuli/H-8sim2.png,Stimuli/H-8sim2.png,,,,f,1,0.33424,,22,0,22,0,1,,,,,,,,conf_haus,,,,,,,,,,,,,,,,,,,,,,,,,,,MG,4,2,2020-11-15_22h32.34.325,configural_featural,2020.2.4,MacIntel,60,1440,900,,1,0.20374688,1,Stimuli/H-8sim1.png,Stimuli/H-8sim1.png,,,,f,1,0.4189,,23,0,23,0,1,,,,,,,,conf_haus,,,,,,,,,,,,,,,,,,,,,,,,,,,MG,4,2,2020-11-15_22h32.34.325,configural_featural,2020.2.4,MacIntel,60,1440,900,,0,-0.20374688,1,Stimuli/H-8sim1.png,Stimuli/H-8sim1.png,,,space,f,1,0.83447,,24,0,24,0,1,,0.134025,,,,,,conf_haus,,,,,,,,,,,,,,,,,,,,,,,,,,,MG,4,2,2020-11-15_22h32.34.325,configural_featural,2020.2.4,MacIntel,60,1440,900,,0,-0.20374688,0,Stimuli/H-8sim3.png,Stimuli/H-8sim0.png,,,,j,1,0.468215,,25,0,25,0,1,,,,,,,,conf_haus,,,,,,,,,,,,,,,,,,,,,,,,,,,MG,4,2,2020-11-15_22h32.34.325,configural_featural,2020.2.4,MacIntel,60,1440,900,,0,0.20374688,0,Stimuli/H-8sim1.png,Stimuli/H-8sim3.png,,,,j,1,0.676995,,26,0,26,0,1,,,,,,,,conf_haus,,,,,,,,,,,,,,,,,,,,,,,,,,,MG,4,2,2020-11-15_22h32.34.325,configural_featural,2020.2.4,MacIntel,60,1440,900,,0,0.20374688,1,Stimuli/H-8sim0.png,Stimuli/H-8sim0.png,,,,f,1,0.467865,,27,0,27,0,1,,,,,,,,conf_haus,,,,,,,,,,,,,,,,,,,,,,,,,,,MG,4,2,2020-11-15_22h32.34.325,configural_featural,2020.2.4,MacIntel,60,1440,900,,0,0.20374688,1,Stimuli/H-8sim1.png,Stimuli/H-8sim1.png,,,,f,1,1.49905,,28,0,28,0,1,,,,,,,,conf_haus,,,,,,,,,,,,,,,,,,,,,,,,,,,MG,4,2,2020-11-15_22h32.34.325,configural_featural,2020.2.4,MacIntel,60,1440,900,,0,0.20374688,0,Stimuli/H-8sim1.png,Stimuli/H-8sim2.png,,,,f,0,0.80035,,29,0,29,0,1,,,,,,,,conf_haus,,,,,,,,,,,,,,,,,,,,,,,,,,,MG,4,2,2020-11-15_22h32.34.325,configural_featural,2020.2.4,MacIntel,60,1440,900,,0,0.20374688,0,Stimuli/H-8sim0.png,Stimuli/H-8sim1.png,,,,f,0,0.718285,,30,0,30,0,1,,,,,,,,conf_haus,,,,,,,,,,,,,,,,,,,,,,,,,,,MG,4,2,2020-11-15_22h32.34.325,configural_featural,2020.2.4,MacIntel,60,1440,900,,1,-0.20374688,1,Stimuli/H-8sim3.png,Stimuli/H-8sim3.png,,,,j,0,0.767125,space,31,0,31,0,1,0.244895,,,,,,,conf_haus,,,,,,,,,,,,,,,,,,,,,,,,,,,MG,4,2,2020-11-15_22h32.34.325,configural_featural,2020.2.4,MacIntel,60,1440,900,,0,-0.20374688,1,Stimuli/H-8sim0.png,Stimuli/H-8sim0.png,,,,f,1,0.417455,,32,0,32,0,1,,,,,,,,conf_haus,,,,,,,,,,,,,,,,,,,,,,,,,,,MG,4,2,2020-11-15_22h32.34.325,configural_featural,2020.2.4,MacIntel,60,1440,900,,0,-0.20374688,0,Stimuli/H-8sim3.png,Stimuli/H-8sim1.png,,,,j,1,0.634175,,33,0,33,0,1,,,,,,,,conf_haus,,,,,,,,,,,,,,,,,,,,,,,,,,,MG,4,2,2020-11-15_22h32.34.325,configural_featural,2020.2.4,MacIntel,60,1440,900,,0,-0.20374688,0,Stimuli/H-8sim2.png,Stimuli/H-8sim0.png,,,,j,1,0.634705,,34,0,34,0,1,,,,,,,,conf_haus,,,,,,,,,,,,,,,,,,,,,,,,,,,MG,4,2,2020-11-15_22h32.34.325,configural_featural,2020.2.4,MacIntel,60,1440,900,,1,-0.20374688,1,Stimuli/H-8sim0.png,Stimuli/H-8sim0.png,,,space,f,1,2.81048,space,35,0,35,0,1,0.93319,0.030845,,,,,,conf_haus,,,,,,,,,,,,,,,,,,,,,,,,,,,MG,4,2,2020-11-15_22h32.34.325,configural_featural,2020.2.4,MacIntel,60,1440,900,,0,-0.20374688,1,Stimuli/H-8sim1.png,Stimuli/H-8sim1.png,,,,f,1,0.434495,,36,0,36,0,1,,,,,,,,conf_haus,,,,,,,,,,,,,,,,,,,,,,,,,,,MG,4,2,2020-11-15_22h32.34.325,configural_featural,2020.2.4,MacIntel,60,1440,900,,1,-0.20374688,1,Stimuli/H-8sim3.png,Stimuli/H-8sim3.png,,,,f,1,0.812575,,37,0,37,0,1,,,,,,,,conf_haus,,,,,,,,,,,,,,,,,,,,,,,,,,,MG,4,2,2020-11-15_22h32.34.325,configural_featural,2020.2.4,MacIntel,60,1440,900,,0,0.20374688,0,Stimuli/H-8sim2.png,Stimuli/H-8sim3.png,,,,j,1,0.630535,,38,0,38,0,1,,,,,,,,conf_haus,,,,,,,,,,,,,,,,,,,,,,,,,,,MG,4,2,2020-11-15_22h32.34.325,configural_featural,2020.2.4,MacIntel,60,1440,900,,0,0.20374688,0,Stimuli/H-8sim3.png,Stimuli/H-8sim2.png,,,,j,1,0.24804,,39,0,39,0,1,,,,,,,,conf_haus,,,,,,,,,,,,,,,,,,,,,,,,,,,MG,4,2,2020-11-15_22h32.34.325,configural_featural,2020.2.4,MacIntel,60,1440,900,,0,-0.20374688,0,Stimuli/H-8sim0.png,Stimuli/H-8sim1.png,,,,j,1,0.982265,,40,0,40,0,1,,,,,,,,conf_haus,,,,,,,,,,,,,,,,,,,,,,,,,,,MG,4,2,2020-11-15_22h32.34.325,configural_featural,2020.2.4,MacIntel,60,1440,900,,0,0.20374688,1,Stimuli/H-8sim0.png,Stimuli/H-8sim0.png,,,,j,0,0.483925,,41,0,41,0,1,,,,,,,,conf_haus,,,,,,,,,,,,,,,,,,,,,,,,,,,MG,4,2,2020-11-15_22h32.34.325,configural_featural,2020.2.4,MacIntel,60,1440,900,,0,0.20374688,0,Stimuli/H-8sim2.png,Stimuli/H-8sim0.png,,,,j,1,0.2933,,42,0,42,0,1,,,,,,,,conf_haus,,,,,,,,,,,,,,,,,,,,,,,,,,,MG,4,2,2020-11-15_22h32.34.325,configural_featural,2020.2.4,MacIntel,60,1440,900,,0,0.20374688,1,Stimuli/H-8sim2.png,Stimuli/H-8sim2.png,,,,j,0,0.449305,,43,0,43,0,1,,,,,,,,conf_haus,,,,,,,,,,,,,,,,,,,,,,,,,,,MG,4,2,2020-11-15_22h32.34.325,configural_featural,2020.2.4,MacIntel,60,1440,900,,1,-0.20374688,0,Stimuli/H-8sim0.png,Stimuli/H-8sim2.png,,,,f,0,0.65113,space,44,0,44,0,1,0.135035,,,,,,,conf_haus,,,,,,,,,,,,,,,,,,,,,,,,,,,MG,4,2,2020-11-15_22h32.34.325,configural_featural,2020.2.4,MacIntel,60,1440,900,,0,-0.20374688,1,Stimuli/H-8sim2.png,Stimuli/H-8sim2.png,,,,f,1,0.33403,,45,0,45,0,1,,,,,,,,conf_haus,,,,,,,,,,,,,,,,,,,,,,,,,,,MG,4,2,2020-11-15_22h32.34.325,configural_featural,2020.2.4,MacIntel,60,1440,900,,0,0.20374688,1,Stimuli/H-8sim3.png,Stimuli/H-8sim3.png,,,,f,1,0.60018,,46,0,46,0,1,,,,,,,,conf_haus,,,,,,,,,,,,,,,,,,,,,,,,,,,MG,4,2,2020-11-15_22h32.34.325,configural_featural,2020.2.4,MacIntel,60,1440,900,,0,0.20374688,0,Stimuli/H-8sim0.png,Stimuli/H-8sim3.png,,,,j,1,0.18465,,47,0,47,0,1,,,,,,,,conf_haus,,,,,,,,,,,,,,,,,,,,,,,,,,,MG,4,2,2020-11-15_22h32.34.325,configural_featural,2020.2.4,MacIntel,60,1440,900,,,,,,,,,,,,,,,,,,,,,0,2,2,2,1,conf_haus,Designs/instructions_haus_1234.png,,,,,,,,,,,,,,,,,,,,,,,,,,MG,4,2,2020-11-15_22h32.34.325,configural_featural,2020.2.4,MacIntel,60,1440,900,,0,-0.20374688,1,Stimuli/edmd.png,Stimuli/edmd.png,,,,f,1,0.80071,,0,0,0,0,1,,,,,,,,conf_face,,,,,,,,,,,,,,,,,,,,,,,,,,,MG,4,2,2020-11-15_22h32.34.325,configural_featural,2020.2.4,MacIntel,60,1440,900,,0,-0.20374688,0,Stimuli/eumu.png,Stimuli/eimd.png,,,,f,0,0.60119,,1,0,1,0,1,,,,,,,,conf_face,,,,,,,,,,,,,,,,,,,,,,,,,,,MG,4,2,2020-11-15_22h32.34.325,configural_featural,2020.2.4,MacIntel,60,1440,900,,0,0.20374688,1,Stimuli/eomu.png,Stimuli/eomu.png,,,,j,0,0.410135,,2,0,2,0,1,,,,,,,,conf_face,,,,,,,,,,,,,,,,,,,,,,,,,,,MG,4,2,2020-11-15_22h32.34.325,configural_featural,2020.2.4,MacIntel,60,1440,900,,0,-0.20374688,1,Stimuli/eomu.png,Stimuli/eomu.png,,,,f,1,1.38411,,3,0,3,0,1,,,,,,,,conf_face,,,,,,,,,,,,,,,,,,,,,,,,,,,MG,4,2,2020-11-15_22h32.34.325,configural_featural,2020.2.4,MacIntel,60,1440,900,,0,0.20374688,0,Stimuli/eumu.png,Stimuli/eimd.png,,,,f,0,0.500425,,4,0,4,0,1,,,,,,,,conf_face,,,,,,,,,,,,,,,,,,,,,,,,,,,MG,4,2,2020-11-15_22h32.34.325,configural_featural,2020.2.4,MacIntel,60,1440,900,,1,0.20374688,0,Stimuli/eimd.png,Stimuli/eumu.png,,,space,f,0,0.567725,,5,0,5,0,1,,0.16037,,,,,,conf_face,,,,,,,,,,,,,,,,,,,,,,,,,,,MG,4,2,2020-11-15_22h32.34.325,configural_featural,2020.2.4,MacIntel,60,1440,900,,0,0.20374688,1,Stimuli/edmd.png,Stimuli/edmd.png,,,,j,0,0.718405,,6,0,6,0,1,,,,,,,,conf_face,,,,,,,,,,,,,,,,,,,,,,,,,,,MG,4,2,2020-11-15_22h32.34.325,configural_featural,2020.2.4,MacIntel,60,1440,900,,0,0.20374688,0,Stimuli/edmd.png,Stimuli/eumu.png,,,,f,0,0.586245,,7,0,7,0,1,,,,,,,,conf_face,,,,,,,,,,,,,,,,,,,,,,,,,,,MG,4,2,2020-11-15_22h32.34.325,configural_featural,2020.2.4,MacIntel,60,1440,900,,0,-0.20374688,0,Stimuli/eomu.png,Stimuli/edmd.png,,,,f,0,0.268455,,8,0,8,0,1,,,,,,,,conf_face,,,,,,,,,,,,,,,,,,,,,,,,,,,MG,4,2,2020-11-15_22h32.34.325,configural_featural,2020.2.4,MacIntel,60,1440,900,,0,0.20374688,1,Stimuli/eumu.png,Stimuli/eumu.png,,,,f,1,0.63408,,9,0,9,0,1,,,,,,,,conf_face,,,,,,,,,,,,,,,,,,,,,,,,,,,MG,4,2,2020-11-15_22h32.34.325,configural_featural,2020.2.4,MacIntel,60,1440,900,,0,-0.20374688,0,Stimuli/eimd.png,Stimuli/eomu.png,,,,f,0,0.418725,,10,0,10,0,1,,,,,,,,conf_face,,,,,,,,,,,,,,,,,,,,,,,,,,,MG,4,2,2020-11-15_22h32.34.325,configural_featural,2020.2.4,MacIntel,60,1440,900,,0,-0.20374688,1,Stimuli/eimd.png,Stimuli/eimd.png,,,,f,1,0.451225,,11,0,11,0,1,,,,,,,,conf_face,,,,,,,,,,,,,,,,,,,,,,,,,,,MG,4,2,2020-11-15_22h32.34.325,configural_featural,2020.2.4,MacIntel,60,1440,900,,0,-0.20374688,0,Stimuli/eumu.png,Stimuli/edmd.png,,,,f,0,0.511215,,12,0,12,0,1,,,,,,,,conf_face,,,,,,,,,,,,,,,,,,,,,,,,,,,MG,4,2,2020-11-15_22h32.34.325,configural_featural,2020.2.4,MacIntel,60,1440,900,,0,0.20374688,1,Stimuli/eimd.png,Stimuli/eimd.png,,,,f,1,0.429155,,13,0,13,0,1,,,,,,,,conf_face,,,,,,,,,,,,,,,,,,,,,,,,,,,MG,4,2,2020-11-15_22h32.34.325,configural_featural,2020.2.4,MacIntel,60,1440,900,,0,-0.20374688,1,Stimuli/eumu.png,Stimuli/eumu.png,,,,f,1,0.335145,,14,0,14,0,1,,,,,,,,conf_face,,,,,,,,,,,,,,,,,,,,,,,,,,,MG,4,2,2020-11-15_22h32.34.325,configural_featural,2020.2.4,MacIntel,60,1440,900,,0,-0.20374688,1,Stimuli/eimd.png,Stimuli/eimd.png,,,,f,1,0.433485,,15,0,15,0,1,,,,,,,,conf_face,,,,,,,,,,,,,,,,,,,,,,,,,,,MG,4,2,2020-11-15_22h32.34.325,configural_featural,2020.2.4,MacIntel,60,1440,900,,0,-0.20374688,0,Stimuli/eimd.png,Stimuli/eumu.png,,,,f,0,0.36747,,16,0,16,0,1,,,,,,,,conf_face,,,,,,,,,,,,,,,,,,,,,,,,,,,MG,4,2,2020-11-15_22h32.34.325,configural_featural,2020.2.4,MacIntel,60,1440,900,,0,0.20374688,0,Stimuli/edmd.png,Stimuli/eimd.png,,,,j,1,0.2852,,17,0,17,0,1,,,,,,,,conf_face,,,,,,,,,,,,,,,,,,,,,,,,,,,MG,4,2,2020-11-15_22h32.34.325,configural_featural,2020.2.4,MacIntel,60,1440,900,,0,0.20374688,1,Stimuli/edmd.png,Stimuli/edmd.png,,,,j,0,1.101645,,18,0,18,0,1,,,,,,,,conf_face,,,,,,,,,,,,,,,,,,,,,,,,,,,MG,4,2,2020-11-15_22h32.34.325,configural_featural,2020.2.4,MacIntel,60,1440,900,,0,0.20374688,1,Stimuli/eimd.png,Stimuli/eimd.png,,,,j,0,0.812295,,19,0,19,0,1,,,,,,,,conf_face,,,,,,,,,,,,,,,,,,,,,,,,,,,MG,4,2,2020-11-15_22h32.34.325,configural_featural,2020.2.4,MacIntel,60,1440,900,,0,-0.20374688,0,Stimuli/edmd.png,Stimuli/eimd.png,,,,f,0,0.678155,,20,0,20,0,1,,,,,,,,conf_face,,,,,,,,,,,,,,,,,,,,,,,,,,,MG,4,2,2020-11-15_22h32.34.325,configural_featural,2020.2.4,MacIntel,60,1440,900,,0,-0.20374688,0,Stimuli/eimd.png,Stimuli/edmd.png,,,,f,0,0.31841,,21,0,21,0,1,,,,,,,,conf_face,,,,,,,,,,,,,,,,,,,,,,,,,,,MG,4,2,2020-11-15_22h32.34.325,configural_featural,2020.2.4,MacIntel,60,1440,900,,1,0.20374688,0,Stimuli/edmd.png,Stimuli/eomu.png,,,,j,1,4.00059,space,22,0,22,0,1,0.40004,,,,,,,conf_face,,,,,,,,,,,,,,,,,,,,,,,,,,,MG,4,2,2020-11-15_22h32.34.325,configural_featural,2020.2.4,MacIntel,60,1440,900,,0,0.20374688,1,Stimuli/eumu.png,Stimuli/eumu.png,,,,f,1,0.63574,,23,0,23,0,1,,,,,,,,conf_face,,,,,,,,,,,,,,,,,,,,,,,,,,,MG,4,2,2020-11-15_22h32.34.325,configural_featural,2020.2.4,MacIntel,60,1440,900,,0,-0.20374688,1,Stimuli/edmd.png,Stimuli/edmd.png,,,,f,1,0.302305,,24,0,24,0,1,,,,,,,,conf_face,,,,,,,,,,,,,,,,,,,,,,,,,,,MG,4,2,2020-11-15_22h32.34.325,configural_featural,2020.2.4,MacIntel,60,1440,900,,0,-0.20374688,0,Stimuli/edmd.png,Stimuli/eomu.png,,,,f,0,0.498215,,25,0,25,0,1,,,,,,,,conf_face,,,,,,,,,,,,,,,,,,,,,,,,,,,MG,4,2,2020-11-15_22h32.34.325,configural_featural,2020.2.4,MacIntel,60,1440,900,,0,0.20374688,0,Stimuli/eumu.png,Stimuli/edmd.png,,,,f,0,0.685085,,26,0,26,0,1,,,,,,,,conf_face,,,,,,,,,,,,,,,,,,,,,,,,,,,MG,4,2,2020-11-15_22h32.34.325,configural_featural,2020.2.4,MacIntel,60,1440,900,,0,-0.20374688,1,Stimuli/eumu.png,Stimuli/eumu.png,,,,f,1,0.454255,,27,0,27,0,1,,,,,,,,conf_face,,,,,,,,,,,,,,,,,,,,,,,,,,,MG,4,2,2020-11-15_22h32.34.325,configural_featural,2020.2.4,MacIntel,60,1440,900,,0,-0.20374688,0,Stimuli/eumu.png,Stimuli/eomu.png,,,,f,0,0.32704,,28,0,28,0,1,,,,,,,,conf_face,,,,,,,,,,,,,,,,,,,,,,,,,,,MG,4,2,2020-11-15_22h32.34.325,configural_featural,2020.2.4,MacIntel,60,1440,900,,0,0.20374688,1,Stimuli/eomu.png,Stimuli/eomu.png,,,,f,1,0.48722,,29,0,29,0,1,,,,,,,,conf_face,,,,,,,,,,,,,,,,,,,,,,,,,,,MG,4,2,2020-11-15_22h32.34.325,configural_featural,2020.2.4,MacIntel,60,1440,900,,1,-0.20374688,0,Stimuli/edmd.png,Stimuli/eumu.png,,,space,f,0,6.46386,space,30,0,30,0,1,5.8998,0.16697,,,,,,conf_face,,,,,,,,,,,,,,,,,,,,,,,,,,,MG,4,2,2020-11-15_22h32.34.325,configural_featural,2020.2.4,MacIntel,60,1440,900,,0,0.20374688,1,Stimuli/eomu.png,Stimuli/eomu.png,,,,f,1,0.52823,,31,0,31,0,1,,,,,,,,conf_face,,,,,,,,,,,,,,,,,,,,,,,,,,,MG,4,2,2020-11-15_22h32.34.325,configural_featural,2020.2.4,MacIntel,60,1440,900,,0,-0.20374688,0,Stimuli/eomu.png,Stimuli/eimd.png,,,,f,0,0.1284,,32,0,32,0,1,,,,,,,,conf_face,,,,,,,,,,,,,,,,,,,,,,,,,,,MG,4,2,2020-11-15_22h32.34.325,configural_featural,2020.2.4,MacIntel,60,1440,900,,0,0.20374688,1,Stimuli/edmd.png,Stimuli/edmd.png,,,,f,1,0.63455,,33,0,33,0,1,,,,,,,,conf_face,,,,,,,,,,,,,,,,,,,,,,,,,,,MG,4,2,2020-11-15_22h32.34.325,configural_featural,2020.2.4,MacIntel,60,1440,900,,0,-0.20374688,1,Stimuli/eomu.png,Stimuli/eomu.png,,,,f,1,0.367445,,34,0,34,0,1,,,,,,,,conf_face,,,,,,,,,,,,,,,,,,,,,,,,,,,MG,4,2,2020-11-15_22h32.34.325,configural_featural,2020.2.4,MacIntel,60,1440,900,,0,0.20374688,0,Stimuli/eimd.png,Stimuli/edmd.png,,,,f,0,0.294455,,35,0,35,0,1,,,,,,,,conf_face,,,,,,,,,,,,,,,,,,,,,,,,,,,MG,4,2,2020-11-15_22h32.34.325,configural_featural,2020.2.4,MacIntel,60,1440,900,,0,0.20374688,0,Stimuli/eomu.png,Stimuli/edmd.png,,,,f,0,0.234375,,36,0,36,0,1,,,,,,,,conf_face,,,,,,,,,,,,,,,,,,,,,,,,,,,MG,4,2,2020-11-15_22h32.34.325,configural_featural,2020.2.4,MacIntel,60,1440,900,,0,0.20374688,0,Stimuli/eimd.png,Stimuli/eomu.png,,,,j,1,0.60078,,37,0,37,0,1,,,,,,,,conf_face,,,,,,,,,,,,,,,,,,,,,,,,,,,MG,4,2,2020-11-15_22h32.34.325,configural_featural,2020.2.4,MacIntel,60,1440,900,,0,0.20374688,0,Stimuli/eumu.png,Stimuli/eomu.png,,,,f,0,0.65086,,38,0,38,0,1,,,,,,,,conf_face,,,,,,,,,,,,,,,,,,,,,,,,,,,MG,4,2,2020-11-15_22h32.34.325,configural_featural,2020.2.4,MacIntel,60,1440,900,,1,-0.20374688,1,Stimuli/edmd.png,Stimuli/edmd.png,,,space,f,1,0.734775,,39,0,39,0,1,,0.11895,,,,,,conf_face,,,,,,,,,,,,,,,,,,,,,,,,,,,MG,4,2,2020-11-15_22h32.34.325,configural_featural,2020.2.4,MacIntel,60,1440,900,,1,0.20374688,1,Stimuli/eimd.png,Stimuli/eimd.png,,,,f,1,0.684295,,40,0,40,0,1,,,,,,,,conf_face,,,,,,,,,,,,,,,,,,,,,,,,,,,MG,4,2,2020-11-15_22h32.34.325,configural_featural,2020.2.4,MacIntel,60,1440,900,,0,0.20374688,1,Stimuli/eumu.png,Stimuli/eumu.png,,,,f,1,0.418375,,41,0,41,0,1,,,,,,,,conf_face,,,,,,,,,,,,,,,,,,,,,,,,,,,MG,4,2,2020-11-15_22h32.34.325,configural_featural,2020.2.4,MacIntel,60,1440,900,,1,0.20374688,0,Stimuli/eomu.png,Stimuli/eimd.png,,,,f,0,1.13374,,42,0,42,0,1,,,,,,,,conf_face,,,,,,,,,,,,,,,,,,,,,,,,,,,MG,4,2,2020-11-15_22h32.34.325,configural_featural,2020.2.4,MacIntel,60,1440,900,,0,-0.20374688,1,Stimuli/eomu.png,Stimuli/eomu.png,,,,j,0,0.552935,,43,0,43,0,1,,,,,,,,conf_face,,,,,,,,,,,,,,,,,,,,,,,,,,,MG,4,2,2020-11-15_22h32.34.325,configural_featural,2020.2.4,MacIntel,60,1440,900,,0,0.20374688,0,Stimuli/eomu.png,Stimuli/eumu.png,,,,j,1,0.53676,,44,0,44,0,1,,,,,,,,conf_face,,,,,,,,,,,,,,,,,,,,,,,,,,,MG,4,2,2020-11-15_22h32.34.325,configural_featural,2020.2.4,MacIntel,60,1440,900,,0,-0.20374688,0,Stimuli/eomu.png,Stimuli/eumu.png,,,,f,0,0.36682,,45,0,45,0,1,,,,,,,,conf_face,,,,,,,,,,,,,,,,,,,,,,,,,,,MG,4,2,2020-11-15_22h32.34.325,configural_featural,2020.2.4,MacIntel,60,1440,900,,0,-0.20374688,1,Stimuli/eimd.png,Stimuli/eimd.png,,,,f,1,0.499355,,46,0,46,0,1,,,,,,,,conf_face,,,,,,,,,,,,,,,,,,,,,,,,,,,MG,4,2,2020-11-15_22h32.34.325,configural_featural,2020.2.4,MacIntel,60,1440,900,,0,-0.20374688,1,Stimuli/eumu.png,Stimuli/eumu.png,,,,f,1,0.534565,,47,0,47,0,1,,,,,,,,conf_face,,,,,,,,,,,,,,,,,,,,,,,,,,,MG,4,2,2020-11-15_22h32.34.325,configural_featural,2020.2.4,MacIntel,60,1440,900,,,,,,,,,,,,,,,,,,,,,0,3,3,3,1,conf_face,Designs/instructions_face_1234.png,,,,,,,,,,,,,,,,,,,,,,,,,,MG,4,2,2020-11-15_22h32.34.325,configural_featural,2020.2.4,MacIntel,60,1440,900,,0,0.20374688,1,Stimuli/H5sim0.png,Stimuli/H5sim0.png,,,,f,1,1.135815,,0,0,0,0,1,,,,,,,,feat_haus,,,,,,,,,,,,,,,,,,,,,,,,,,,MG,4,2,2020-11-15_22h32.34.325,configural_featural,2020.2.4,MacIntel,60,1440,900,,0,0.20374688,1,Stimuli/H7sim0.png,Stimuli/H7sim0.png,,,,f,1,0.550595,,1,0,1,0,1,,,,,,,,feat_haus,,,,,,,,,,,,,,,,,,,,,,,,,,,MG,4,2,2020-11-15_22h32.34.325,configural_featural,2020.2.4,MacIntel,60,1440,900,,0,0.20374688,0,Stimuli/H8sim0.png,Stimuli/H5sim0.png,,,,j,1,0.48427,,2,0,2,0,1,,,,,,,,feat_haus,,,,,,,,,,,,,,,,,,,,,,,,,,,MG,4,2,2020-11-15_22h32.34.325,configural_featural,2020.2.4,MacIntel,60,1440,900,,1,-0.20374688,1,Stimuli/H7sim0.png,Stimuli/H7sim0.png,,,,f,1,0.78547,space,3,0,3,0,1,0.21851,,,,,,,feat_haus,,,,,,,,,,,,,,,,,,,,,,,,,,,MG,4,2,2020-11-15_22h32.34.325,configural_featural,2020.2.4,MacIntel,60,1440,900,,0,0.20374688,0,Stimuli/H8sim0.png,Stimuli/H6sim0.png,,,,j,1,0.401445,,4,0,4,0,1,,,,,,,,feat_haus,,,,,,,,,,,,,,,,,,,,,,,,,,,MG,4,2,2020-11-15_22h32.34.325,configural_featural,2020.2.4,MacIntel,60,1440,900,,0,0.20374688,0,Stimuli/H8sim0.png,Stimuli/H7sim0.png,,,,j,1,0.483195,,5,0,5,0,1,,,,,,,,feat_haus,,,,,,,,,,,,,,,,,,,,,,,,,,,MG,4,2,2020-11-15_22h32.34.325,configural_featural,2020.2.4,MacIntel,60,1440,900,,0,0.20374688,0,Stimuli/H6sim0.png,Stimuli/H5sim0.png,,,,j,1,0.700645,,6,0,6,0,1,,,,,,,,feat_haus,,,,,,,,,,,,,,,,,,,,,,,,,,,MG,4,2,2020-11-15_22h32.34.325,configural_featural,2020.2.4,MacIntel,60,1440,900,,0,0.20374688,1,Stimuli/H8sim0.png,Stimuli/H8sim0.png,,,,f,1,0.52774,,7,0,7,0,1,,,,,,,,feat_haus,,,,,,,,,,,,,,,,,,,,,,,,,,,MG,4,2,2020-11-15_22h32.34.325,configural_featural,2020.2.4,MacIntel,60,1440,900,,0,-0.20374688,0,Stimuli/H6sim0.png,Stimuli/H8sim0.png,,,,f,0,0.58426,,8,0,8,0,1,,,,,,,,feat_haus,,,,,,,,,,,,,,,,,,,,,,,,,,,MG,4,2,2020-11-15_22h32.34.325,configural_featural,2020.2.4,MacIntel,60,1440,900,,0,-0.20374688,1,Stimuli/H6sim0.png,Stimuli/H6sim0.png,,,,f,1,0.320575,,9,0,9,0,1,,,,,,,,feat_haus,,,,,,,,,,,,,,,,,,,,,,,,,,,MG,4,2,2020-11-15_22h32.34.325,configural_featural,2020.2.4,MacIntel,60,1440,900,,0,-0.20374688,0,Stimuli/H5sim0.png,Stimuli/H8sim0.png,,,,f,0,0.55064,,10,0,10,0,1,,,,,,,,feat_haus,,,,,,,,,,,,,,,,,,,,,,,,,,,MG,4,2,2020-11-15_22h32.34.325,configural_featural,2020.2.4,MacIntel,60,1440,900,,0,-0.20374688,1,Stimuli/H8sim0.png,Stimuli/H8sim0.png,,,,f,1,0.284465,,11,0,11,0,1,,,,,,,,feat_haus,,,,,,,,,,,,,,,,,,,,,,,,,,,MG,4,2,2020-11-15_22h32.34.325,configural_featural,2020.2.4,MacIntel,60,1440,900,,0,0.20374688,0,Stimuli/H7sim0.png,Stimuli/H8sim0.png,,,,j,1,0.500625,,12,0,12,0,1,,,,,,,,feat_haus,,,,,,,,,,,,,,,,,,,,,,,,,,,MG,4,2,2020-11-15_22h32.34.325,configural_featural,2020.2.4,MacIntel,60,1440,900,,0,0.20374688,1,Stimuli/H6sim0.png,Stimuli/H6sim0.png,,,,f,1,0.50067,,13,0,13,0,1,,,,,,,,feat_haus,,,,,,,,,,,,,,,,,,,,,,,,,,,MG,4,2,2020-11-15_22h32.34.325,configural_featural,2020.2.4,MacIntel,60,1440,900,,0,-0.20374688,0,Stimuli/H7sim0.png,Stimuli/H8sim0.png,,,,j,1,0.493615,,14,0,14,0,1,,,,,,,,feat_haus,,,,,,,,,,,,,,,,,,,,,,,,,,,MG,4,2,2020-11-15_22h32.34.325,configural_featural,2020.2.4,MacIntel,60,1440,900,,0,-0.20374688,1,Stimuli/H5sim0.png,Stimuli/H5sim0.png,,,,j,0,0.696255,,15,0,15,0,1,,,,,,,,feat_haus,,,,,,,,,,,,,,,,,,,,,,,,,,,MG,4,2,2020-11-15_22h32.34.325,configural_featural,2020.2.4,MacIntel,60,1440,900,,1,0.20374688,1,Stimuli/H7sim0.png,Stimuli/H7sim0.png,,,,j,0,0.984425,,16,0,16,0,1,,,,,,,,feat_haus,,,,,,,,,,,,,,,,,,,,,,,,,,,MG,4,2,2020-11-15_22h32.34.325,configural_featural,2020.2.4,MacIntel,60,1440,900,,0,-0.20374688,0,Stimuli/H5sim0.png,Stimuli/H6sim0.png,,,,j,1,0.51732,,17,0,17,0,1,,,,,,,,feat_haus,,,,,,,,,,,,,,,,,,,,,,,,,,,MG,4,2,2020-11-15_22h32.34.325,configural_featural,2020.2.4,MacIntel,60,1440,900,,0,-0.20374688,0,Stimuli/H6sim0.png,Stimuli/H5sim0.png,,,,j,1,0.21344,,18,0,18,0,1,,,,,,,,feat_haus,,,,,,,,,,,,,,,,,,,,,,,,,,,MG,4,2,2020-11-15_22h32.34.325,configural_featural,2020.2.4,MacIntel,60,1440,900,,0,-0.20374688,0,Stimuli/H8sim0.png,Stimuli/H6sim0.png,,,,j,1,0.54992,,19,0,19,0,1,,,,,,,,feat_haus,,,,,,,,,,,,,,,,,,,,,,,,,,,MG,4,2,2020-11-15_22h32.34.325,configural_featural,2020.2.4,MacIntel,60,1440,900,,0,-0.20374688,0,Stimuli/H8sim0.png,Stimuli/H7sim0.png,,,,j,1,0.434175,,20,0,20,0,1,,,,,,,,feat_haus,,,,,,,,,,,,,,,,,,,,,,,,,,,MG,4,2,2020-11-15_22h32.34.325,configural_featural,2020.2.4,MacIntel,60,1440,900,,1,-0.20374688,1,Stimuli/H6sim0.png,Stimuli/H6sim0.png,,,,j,0,1.937775,space,21,0,21,0,1,0.9518,,,,,,,feat_haus,,,,,,,,,,,,,,,,,,,,,,,,,,,MG,4,2,2020-11-15_22h32.34.325,configural_featural,2020.2.4,MacIntel,60,1440,900,,0,0.20374688,1,Stimuli/H6sim0.png,Stimuli/H6sim0.png,,,,f,1,0.433335,,22,0,22,0,1,,,,,,,,feat_haus,,,,,,,,,,,,,,,,,,,,,,,,,,,MG,4,2,2020-11-15_22h32.34.325,configural_featural,2020.2.4,MacIntel,60,1440,900,,1,0.20374688,1,Stimuli/H8sim0.png,Stimuli/H8sim0.png,,,,f,1,0.65168,,23,0,23,0,1,,,,,,,,feat_haus,,,,,,,,,,,,,,,,,,,,,,,,,,,MG,4,2,2020-11-15_22h32.34.325,configural_featural,2020.2.4,MacIntel,60,1440,900,,0,0.20374688,1,Stimuli/H5sim0.png,Stimuli/H5sim0.png,,,,f,1,0.550235,,24,0,24,0,1,,,,,,,,feat_haus,,,,,,,,,,,,,,,,,,,,,,,,,,,MG,4,2,2020-11-15_22h32.34.325,configural_featural,2020.2.4,MacIntel,60,1440,900,,0,0.20374688,0,Stimuli/H5sim0.png,Stimuli/H6sim0.png,,,,f,0,0.38428,,25,0,25,0,1,,,,,,,,feat_haus,,,,,,,,,,,,,,,,,,,,,,,,,,,MG,4,2,2020-11-15_22h32.34.325,configural_featural,2020.2.4,MacIntel,60,1440,900,,0,-0.20374688,1,Stimuli/H8sim0.png,Stimuli/H8sim0.png,,,,f,1,0.347795,,26,0,26,0,1,,,,,,,,feat_haus,,,,,,,,,,,,,,,,,,,,,,,,,,,MG,4,2,2020-11-15_22h32.34.325,configural_featural,2020.2.4,MacIntel,60,1440,900,,0,0.20374688,0,Stimuli/H7sim0.png,Stimuli/H6sim0.png,,,,f,0,0.617215,,27,0,27,0,1,,,,,,,,feat_haus,,,,,,,,,,,,,,,,,,,,,,,,,,,MG,4,2,2020-11-15_22h32.34.325,configural_featural,2020.2.4,MacIntel,60,1440,900,,1,-0.20374688,0,Stimuli/H8sim0.png,Stimuli/H5sim0.png,,,,j,1,0.90044,space,28,0,28,0,1,0.04765,,,,,,,feat_haus,,,,,,,,,,,,,,,,,,,,,,,,,,,MG,4,2,2020-11-15_22h32.34.325,configural_featural,2020.2.4,MacIntel,60,1440,900,,0,-0.20374688,1,Stimuli/H7sim0.png,Stimuli/H7sim0.png,,,,f,1,0.7016,,29,0,29,0,1,,,,,,,,feat_haus,,,,,,,,,,,,,,,,,,,,,,,,,,,MG,4,2,2020-11-15_22h32.34.325,configural_featural,2020.2.4,MacIntel,60,1440,900,,0,-0.20374688,0,Stimuli/H7sim0.png,Stimuli/H6sim0.png,,,,j,1,0.55041,,30,0,30,0,1,,,,,,,,feat_haus,,,,,,,,,,,,,,,,,,,,,,,,,,,MG,4,2,2020-11-15_22h32.34.325,configural_featural,2020.2.4,MacIntel,60,1440,900,,0,0.20374688,0,Stimuli/H5sim0.png,Stimuli/H7sim0.png,,,,j,1,0.47019,,31,0,31,0,1,,,,,,,,feat_haus,,,,,,,,,,,,,,,,,,,,,,,,,,,MG,4,2,2020-11-15_22h32.34.325,configural_featural,2020.2.4,MacIntel,60,1440,900,,0,0.20374688,0,Stimuli/H5sim0.png,Stimuli/H8sim0.png,,,,j,1,0.90137,,32,0,32,0,1,,,,,,,,feat_haus,,,,,,,,,,,,,,,,,,,,,,,,,,,MG,4,2,2020-11-15_22h32.34.325,configural_featural,2020.2.4,MacIntel,60,1440,900,,0,-0.20374688,1,Stimuli/H5sim0.png,Stimuli/H5sim0.png,,,,f,1,0.334165,,33,0,33,0,1,,,,,,,,feat_haus,,,,,,,,,,,,,,,,,,,,,,,,,,,MG,4,2,2020-11-15_22h32.34.325,configural_featural,2020.2.4,MacIntel,60,1440,900,,0,-0.20374688,1,Stimuli/H7sim0.png,Stimuli/H7sim0.png,,,,f,1,0.885885,,34,0,34,0,1,,,,,,,,feat_haus,,,,,,,,,,,,,,,,,,,,,,,,,,,MG,4,2,2020-11-15_22h32.34.325,configural_featural,2020.2.4,MacIntel,60,1440,900,,0,0.20374688,1,Stimuli/H5sim0.png,Stimuli/H5sim0.png,,,,f,1,0.49606,,35,0,35,0,1,,,,,,,,feat_haus,,,,,,,,,,,,,,,,,,,,,,,,,,,MG,4,2,2020-11-15_22h32.34.325,configural_featural,2020.2.4,MacIntel,60,1440,900,,0,-0.20374688,1,Stimuli/H8sim0.png,Stimuli/H8sim0.png,,,,j,0,0.6373,,36,0,36,0,1,,,,,,,,feat_haus,,,,,,,,,,,,,,,,,,,,,,,,,,,MG,4,2,2020-11-15_22h32.34.325,configural_featural,2020.2.4,MacIntel,60,1440,900,,0,0.20374688,1,Stimuli/H7sim0.png,Stimuli/H7sim0.png,,,,f,1,0.585245,,37,0,37,0,1,,,,,,,,feat_haus,,,,,,,,,,,,,,,,,,,,,,,,,,,MG,4,2,2020-11-15_22h32.34.325,configural_featural,2020.2.4,MacIntel,60,1440,900,,0,0.20374688,0,Stimuli/H7sim0.png,Stimuli/H5sim0.png,,,,j,1,0.55003,,38,0,38,0,1,,,,,,,,feat_haus,,,,,,,,,,,,,,,,,,,,,,,,,,,MG,4,2,2020-11-15_22h32.34.325,configural_featural,2020.2.4,MacIntel,60,1440,900,,0,-0.20374688,0,Stimuli/H7sim0.png,Stimuli/H5sim0.png,,,,j,1,0.883575,,39,0,39,0,1,,,,,,,,feat_haus,,,,,,,,,,,,,,,,,,,,,,,,,,,MG,4,2,2020-11-15_22h32.34.325,configural_featural,2020.2.4,MacIntel,60,1440,900,,0,0.20374688,1,Stimuli/H6sim0.png,Stimuli/H6sim0.png,,,,f,1,0.51857,,40,0,40,0,1,,,,,,,,feat_haus,,,,,,,,,,,,,,,,,,,,,,,,,,,MG,4,2,2020-11-15_22h32.34.325,configural_featural,2020.2.4,MacIntel,60,1440,900,,1,-0.20374688,0,Stimuli/H6sim0.png,Stimuli/H7sim0.png,,,space,f,0,0.930075,space,41,0,41,0,1,0.688705,0.088475,,,,,,feat_haus,,,,,,,,,,,,,,,,,,,,,,,,,,,MG,4,2,2020-11-15_22h32.34.325,configural_featural,2020.2.4,MacIntel,60,1440,900,,0,0.20374688,1,Stimuli/H8sim0.png,Stimuli/H8sim0.png,,,,f,1,0.796965,,42,0,42,0,1,,,,,,,,feat_haus,,,,,,,,,,,,,,,,,,,,,,,,,,,MG,4,2,2020-11-15_22h32.34.325,configural_featural,2020.2.4,MacIntel,60,1440,900,,0,0.20374688,0,Stimuli/H6sim0.png,Stimuli/H8sim0.png,,,,f,0,0.49895,,43,0,43,0,1,,,,,,,,feat_haus,,,,,,,,,,,,,,,,,,,,,,,,,,,MG,4,2,2020-11-15_22h32.34.325,configural_featural,2020.2.4,MacIntel,60,1440,900,,0,-0.20374688,1,Stimuli/H5sim0.png,Stimuli/H5sim0.png,,,,f,1,0.567015,,44,0,44,0,1,,,,,,,,feat_haus,,,,,,,,,,,,,,,,,,,,,,,,,,,MG,4,2,2020-11-15_22h32.34.325,configural_featural,2020.2.4,MacIntel,60,1440,900,,0,-0.20374688,0,Stimuli/H5sim0.png,Stimuli/H7sim0.png,,,,j,1,0.534595,,45,0,45,0,1,,,,,,,,feat_haus,,,,,,,,,,,,,,,,,,,,,,,,,,,MG,4,2,2020-11-15_22h32.34.325,configural_featural,2020.2.4,MacIntel,60,1440,900,,0,-0.20374688,1,Stimuli/H6sim0.png,Stimuli/H6sim0.png,,,,f,1,2.11107,space,46,0,46,0,1,1.5266,,,,,,,feat_haus,,,,,,,,,,,,,,,,,,,,,,,,,,,MG,4,2,2020-11-15_22h32.34.325,configural_featural,2020.2.4,MacIntel,60,1440,900,,0,0.20374688,0,Stimuli/H6sim0.png,Stimuli/H7sim0.png,,,,f,0,0.628875,,47,0,47,0,1,,,,,,,,feat_haus,,,,,,,,,,,,,,,,,,,,,,,,,,,MG,4,2,2020-11-15_22h32.34.325,configural_featural,2020.2.4,MacIntel,60,1440,900,,,,,,,,,,,,,,,,,,,,,1,0,4,0,1,feat_haus,Designs/instructions_haus_1234.png,,,,,,,,,,,,,,,,,,,,,,,,,,MG,4,2,2020-11-15_22h32.34.325,configural_featural,2020.2.4,MacIntel,60,1440,900,,0,0.20374688,0,Stimuli/f142.png,Stimuli/f24.png,,,,j,1,1.311495,,0,0,0,0,1,,,,,,,,feat_face,,,,,,,,,,,,,,,,,,,,,,,,,,,MG,4,2,2020-11-15_22h32.34.325,configural_featural,2020.2.4,MacIntel,60,1440,900,,0,0.20374688,0,Stimuli/f142.png,Stimuli/f131.png,,,,j,1,1.38452,,1,0,1,0,1,,,,,,,,feat_face,,,,,,,,,,,,,,,,,,,,,,,,,,,MG,4,2,2020-11-15_22h32.34.325,configural_featural,2020.2.4,MacIntel,60,1440,900,,0,-0.20374688,0,Stimuli/f131.png,Stimuli/f142.png,,,,f,0,0.526905,,2,0,2,0,1,,,,,,,,feat_face,,,,,,,,,,,,,,,,,,,,,,,,,,,MG,4,2,2020-11-15_22h32.34.325,configural_featural,2020.2.4,MacIntel,60,1440,900,,0,0.20374688,1,Stimuli/f15.png,Stimuli/f15.png,,,,f,1,0.734555,,3,0,3,0,1,,,,,,,,feat_face,,,,,,,,,,,,,,,,,,,,,,,,,,,MG,4,2,2020-11-15_22h32.34.325,configural_featural,2020.2.4,MacIntel,60,1440,900,,0,-0.20374688,1,Stimuli/f24.png,Stimuli/f24.png,,,,f,1,0.683465,,4,0,4,0,1,,,,,,,,feat_face,,,,,,,,,,,,,,,,,,,,,,,,,,,MG,4,2,2020-11-15_22h32.34.325,configural_featural,2020.2.4,MacIntel,60,1440,900,,0,0.20374688,1,Stimuli/f24.png,Stimuli/f24.png,,,,f,1,0.51537,,5,0,5,0,1,,,,,,,,feat_face,,,,,,,,,,,,,,,,,,,,,,,,,,,MG,4,2,2020-11-15_22h32.34.325,configural_featural,2020.2.4,MacIntel,60,1440,900,,0,0.20374688,1,Stimuli/f142.png,Stimuli/f142.png,,,,f,1,0.600505,,6,0,6,0,1,,,,,,,,feat_face,,,,,,,,,,,,,,,,,,,,,,,,,,,MG,4,2,2020-11-15_22h32.34.325,configural_featural,2020.2.4,MacIntel,60,1440,900,,0,0.20374688,0,Stimuli/f142.png,Stimuli/f15.png,,,,j,1,0.481505,,7,0,7,0,1,,,,,,,,feat_face,,,,,,,,,,,,,,,,,,,,,,,,,,,MG,4,2,2020-11-15_22h32.34.325,configural_featural,2020.2.4,MacIntel,60,1440,900,,0,0.20374688,1,Stimuli/f131.png,Stimuli/f131.png,,,,j,0,0.58348,,8,0,8,0,1,,,,,,,,feat_face,,,,,,,,,,,,,,,,,,,,,,,,,,,MG,4,2,2020-11-15_22h32.34.325,configural_featural,2020.2.4,MacIntel,60,1440,900,,0,-0.20374688,1,Stimuli/f131.png,Stimuli/f131.png,,,,f,1,0.534025,,9,0,9,0,1,,,,,,,,feat_face,,,,,,,,,,,,,,,,,,,,,,,,,,,MG,4,2,2020-11-15_22h32.34.325,configural_featural,2020.2.4,MacIntel,60,1440,900,,0,0.20374688,0,Stimuli/f24.png,Stimuli/f142.png,,,,f,0,1.548555,,10,0,10,0,1,,,,,,,,feat_face,,,,,,,,,,,,,,,,,,,,,,,,,,,MG,4,2,2020-11-15_22h32.34.325,configural_featural,2020.2.4,MacIntel,60,1440,900,,0,-0.20374688,0,Stimuli/f15.png,Stimuli/f24.png,,,,f,0,0.402195,,11,0,11,0,1,,,,,,,,feat_face,,,,,,,,,,,,,,,,,,,,,,,,,,,MG,4,2,2020-11-15_22h32.34.325,configural_featural,2020.2.4,MacIntel,60,1440,900,,0,-0.20374688,1,Stimuli/f15.png,Stimuli/f15.png,,,,f,1,0.38021,,12,0,12,0,1,,,,,,,,feat_face,,,,,,,,,,,,,,,,,,,,,,,,,,,MG,4,2,2020-11-15_22h32.34.325,configural_featural,2020.2.4,MacIntel,60,1440,900,,0,-0.20374688,1,Stimuli/f142.png,Stimuli/f142.png,,,,f,1,0.35085,,13,0,13,0,1,,,,,,,,feat_face,,,,,,,,,,,,,,,,,,,,,,,,,,,MG,4,2,2020-11-15_22h32.34.325,configural_featural,2020.2.4,MacIntel,60,1440,900,,0,0.20374688,0,Stimuli/f131.png,Stimuli/f15.png,,,,j,1,0.44555,,14,0,14,0,1,,,,,,,,feat_face,,,,,,,,,,,,,,,,,,,,,,,,,,,MG,4,2,2020-11-15_22h32.34.325,configural_featural,2020.2.4,MacIntel,60,1440,900,,1,0.20374688,0,Stimuli/f24.png,Stimuli/f15.png,,,,j,1,0.967735,space,15,0,15,0,1,0.035175,,,,,,,feat_face,,,,,,,,,,,,,,,,,,,,,,,,,,,MG,4,2,2020-11-15_22h32.34.325,configural_featural,2020.2.4,MacIntel,60,1440,900,,0,-0.20374688,0,Stimuli/f131.png,Stimuli/f15.png,,,,f,0,0.717275,,16,0,16,0,1,,,,,,,,feat_face,,,,,,,,,,,,,,,,,,,,,,,,,,,MG,4,2,2020-11-15_22h32.34.325,configural_featural,2020.2.4,MacIntel,60,1440,900,,0,-0.20374688,1,Stimuli/f131.png,Stimuli/f131.png,,,,f,1,0.50167,,17,0,17,0,1,,,,,,,,feat_face,,,,,,,,,,,,,,,,,,,,,,,,,,,MG,4,2,2020-11-15_22h32.34.325,configural_featural,2020.2.4,MacIntel,60,1440,900,,1,-0.20374688,0,Stimuli/f24.png,Stimuli/f15.png,,,,f,0,0.83108,space,18,0,18,0,1,0.05168,,,,,,,feat_face,,,,,,,,,,,,,,,,,,,,,,,,,,,MG,4,2,2020-11-15_22h32.34.325,configural_featural,2020.2.4,MacIntel,60,1440,900,,0,0.20374688,0,Stimuli/f15.png,Stimuli/f142.png,,,,f,0,0.611235,,19,0,19,0,1,,,,,,,,feat_face,,,,,,,,,,,,,,,,,,,,,,,,,,,MG,4,2,2020-11-15_22h32.34.325,configural_featural,2020.2.4,MacIntel,60,1440,900,,0,-0.20374688,1,Stimuli/f15.png,Stimuli/f15.png,,,,f,1,0.42826,,20,0,20,0,1,,,,,,,,feat_face,,,,,,,,,,,,,,,,,,,,,,,,,,,MG,4,2,2020-11-15_22h32.34.325,configural_featural,2020.2.4,MacIntel,60,1440,900,,0,-0.20374688,0,Stimuli/f142.png,Stimuli/f24.png,,,,f,0,0.41941,,21,0,21,0,1,,,,,,,,feat_face,,,,,,,,,,,,,,,,,,,,,,,,,,,MG,4,2,2020-11-15_22h32.34.325,configural_featural,2020.2.4,MacIntel,60,1440,900,,0,0.20374688,1,Stimuli/f15.png,Stimuli/f15.png,,,,f,1,0.40442,,22,0,22,0,1,,,,,,,,feat_face,,,,,,,,,,,,,,,,,,,,,,,,,,,MG,4,2,2020-11-15_22h32.34.325,configural_featural,2020.2.4,MacIntel,60,1440,900,,0,-0.20374688,1,Stimuli/f24.png,Stimuli/f24.png,,,,f,1,0.461025,,23,0,23,0,1,,,,,,,,feat_face,,,,,,,,,,,,,,,,,,,,,,,,,,,MG,4,2,2020-11-15_22h32.34.325,configural_featural,2020.2.4,MacIntel,60,1440,900,,0,-0.20374688,0,Stimuli/f24.png,Stimuli/f131.png,,,,f,0,0.414215,,24,0,24,0,1,,,,,,,,feat_face,,,,,,,,,,,,,,,,,,,,,,,,,,,MG,4,2,2020-11-15_22h32.34.325,configural_featural,2020.2.4,MacIntel,60,1440,900,,0,0.20374688,0,Stimuli/f15.png,Stimuli/f131.png,,,,j,1,0.61715,,25,0,25,0,1,,,,,,,,feat_face,,,,,,,,,,,,,,,,,,,,,,,,,,,MG,4,2,2020-11-15_22h32.34.325,configural_featural,2020.2.4,MacIntel,60,1440,900,,0,-0.20374688,0,Stimuli/f15.png,Stimuli/f142.png,,,,f,0,0.431885,,26,0,26,0,1,,,,,,,,feat_face,,,,,,,,,,,,,,,,,,,,,,,,,,,MG,4,2,2020-11-15_22h32.34.325,configural_featural,2020.2.4,MacIntel,60,1440,900,,0,-0.20374688,1,Stimuli/f142.png,Stimuli/f142.png,,,,f,1,0.67899,,27,0,27,0,1,,,,,,,,feat_face,,,,,,,,,,,,,,,,,,,,,,,,,,,MG,4,2,2020-11-15_22h32.34.325,configural_featural,2020.2.4,MacIntel,60,1440,900,,0,-0.20374688,1,Stimuli/f24.png,Stimuli/f24.png,,,,f,1,0.535335,,28,0,28,0,1,,,,,,,,feat_face,,,,,,,,,,,,,,,,,,,,,,,,,,,MG,4,2,2020-11-15_22h32.34.325,configural_featural,2020.2.4,MacIntel,60,1440,900,,0,0.20374688,1,Stimuli/f142.png,Stimuli/f142.png,,,,f,1,0.643735,,29,0,29,0,1,,,,,,,,feat_face,,,,,,,,,,,,,,,,,,,,,,,,,,,MG,4,2,2020-11-15_22h32.34.325,configural_featural,2020.2.4,MacIntel,60,1440,900,,0,-0.20374688,0,Stimuli/f131.png,Stimuli/f24.png,,,,f,0,0.418355,,30,0,30,0,1,,,,,,,,feat_face,,,,,,,,,,,,,,,,,,,,,,,,,,,MG,4,2,2020-11-15_22h32.34.325,configural_featural,2020.2.4,MacIntel,60,1440,900,,1,0.20374688,1,Stimuli/f24.png,Stimuli/f24.png,,,,f,1,0.801365,space,31,0,31,0,1,0.27752,,,,,,,feat_face,,,,,,,,,,,,,,,,,,,,,,,,,,,MG,4,2,2020-11-15_22h32.34.325,configural_featural,2020.2.4,MacIntel,60,1440,900,,0,0.20374688,0,Stimuli/f15.png,Stimuli/f24.png,,,,f,0,0.547835,,32,0,32,0,1,,,,,,,,feat_face,,,,,,,,,,,,,,,,,,,,,,,,,,,MG,4,2,2020-11-15_22h32.34.325,configural_featural,2020.2.4,MacIntel,60,1440,900,,0,0.20374688,1,Stimuli/f131.png,Stimuli/f131.png,,,,f,1,0.46708,,33,0,33,0,1,,,,,,,,feat_face,,,,,,,,,,,,,,,,,,,,,,,,,,,MG,4,2,2020-11-15_22h32.34.325,configural_featural,2020.2.4,MacIntel,60,1440,900,,0,0.20374688,1,Stimuli/f131.png,Stimuli/f131.png,,,,f,1,0.39942,,34,0,34,0,1,,,,,,,,feat_face,,,,,,,,,,,,,,,,,,,,,,,,,,,MG,4,2,2020-11-15_22h32.34.325,configural_featural,2020.2.4,MacIntel,60,1440,900,,1,-0.20374688,0,Stimuli/f15.png,Stimuli/f131.png,,,,f,0,0.8268,space,35,0,35,0,1,0.31818,,,,,,,feat_face,,,,,,,,,,,,,,,,,,,,,,,,,,,MG,4,2,2020-11-15_22h32.34.325,configural_featural,2020.2.4,MacIntel,60,1440,900,,0,0.20374688,1,Stimuli/f24.png,Stimuli/f24.png,,,,f,1,0.643205,,36,0,36,0,1,,,,,,,,feat_face,,,,,,,,,,,,,,,,,,,,,,,,,,,MG,4,2,2020-11-15_22h32.34.325,configural_featural,2020.2.4,MacIntel,60,1440,900,,0,-0.20374688,0,Stimuli/f24.png,Stimuli/f142.png,,,,f,0,0.443825,,37,0,37,0,1,,,,,,,,feat_face,,,,,,,,,,,,,,,,,,,,,,,,,,,MG,4,2,2020-11-15_22h32.34.325,configural_featural,2020.2.4,MacIntel,60,1440,900,,0,0.20374688,0,Stimuli/f131.png,Stimuli/f24.png,,,,f,0,0.358695,,38,0,38,0,1,,,,,,,,feat_face,,,,,,,,,,,,,,,,,,,,,,,,,,,MG,4,2,2020-11-15_22h32.34.325,configural_featural,2020.2.4,MacIntel,60,1440,900,,0,0.20374688,1,Stimuli/f15.png,Stimuli/f15.png,,,,f,1,0.545225,,39,0,39,0,1,,,,,,,,feat_face,,,,,,,,,,,,,,,,,,,,,,,,,,,MG,4,2,2020-11-15_22h32.34.325,configural_featural,2020.2.4,MacIntel,60,1440,900,,0,0.20374688,0,Stimuli/f24.png,Stimuli/f131.png,,,,f,0,0.46687,,40,0,40,0,1,,,,,,,,feat_face,,,,,,,,,,,,,,,,,,,,,,,,,,,MG,4,2,2020-11-15_22h32.34.325,configural_featural,2020.2.4,MacIntel,60,1440,900,,0,-0.20374688,1,Stimuli/f15.png,Stimuli/f15.png,,,,f,1,0.434495,,41,0,41,0,1,,,,,,,,feat_face,,,,,,,,,,,,,,,,,,,,,,,,,,,MG,4,2,2020-11-15_22h32.34.325,configural_featural,2020.2.4,MacIntel,60,1440,900,,0,-0.20374688,1,Stimuli/f131.png,Stimuli/f131.png,,,,f,1,0.467405,,42,0,42,0,1,,,,,,,,feat_face,,,,,,,,,,,,,,,,,,,,,,,,,,,MG,4,2,2020-11-15_22h32.34.325,configural_featural,2020.2.4,MacIntel,60,1440,900,,1,-0.20374688,0,Stimuli/f142.png,Stimuli/f131.png,,,,f,0,0.8542,space,43,0,43,0,1,0.10981,,,,,,,feat_face,,,,,,,,,,,,,,,,,,,,,,,,,,,MG,4,2,2020-11-15_22h32.34.325,configural_featural,2020.2.4,MacIntel,60,1440,900,,0,0.20374688,0,Stimuli/f131.png,Stimuli/f142.png,,,,f,0,0.91786,,44,0,44,0,1,,,,,,,,feat_face,,,,,,,,,,,,,,,,,,,,,,,,,,,MG,4,2,2020-11-15_22h32.34.325,configural_featural,2020.2.4,MacIntel,60,1440,900,,1,0.20374688,1,Stimuli/f142.png,Stimuli/f142.png,,,,f,1,1.049355,space,45,0,45,0,1,0.460705,,,,,,,feat_face,,,,,,,,,,,,,,,,,,,,,,,,,,,MG,4,2,2020-11-15_22h32.34.325,configural_featural,2020.2.4,MacIntel,60,1440,900,,0,-0.20374688,1,Stimuli/f142.png,Stimuli/f142.png,,,,f,1,0.844895,,46,0,46,0,1,,,,,,,,feat_face,,,,,,,,,,,,,,,,,,,,,,,,,,,MG,4,2,2020-11-15_22h32.34.325,configural_featural,2020.2.4,MacIntel,60,1440,900,,0,-0.20374688,0,Stimuli/f142.png,Stimuli/f15.png,,,,f,0,0.68459,,47,0,47,0,1,,,,,,,,feat_face,,,,,,,,,,,,,,,,,,,,,,,,,,,MG,4,2,2020-11-15_22h32.34.325,configural_featural,2020.2.4,MacIntel,60,1440,900,,,,,,,,,,,,,,,,,,,,,1,1,5,1,1,feat_face,Designs/instructions_face_1234.png,,,,,,,,,,,,,,,,,,,,,,,,,,MG,4,2,2020-11-15_22h32.34.325,configural_featural,2020.2.4,MacIntel,60,1440,900,,0,-0.20374688,0,Stimuli/H-8sim2.png,Stimuli/H-8sim3.png,,,,f,0,1.133735,,0,0,0,0,1,,,,,,,,conf_haus,,,,,,,,,,,,,,,,,,,,,,,,,,,MG,4,2,2020-11-15_22h32.34.325,configural_featural,2020.2.4,MacIntel,60,1440,900,,0,0.20374688,1,Stimuli/H-8sim3.png,Stimuli/H-8sim3.png,,,,f,1,0.761285,,1,0,1,0,1,,,,,,,,conf_haus,,,,,,,,,,,,,,,,,,,,,,,,,,,MG,4,2,2020-11-15_22h32.34.325,configural_featural,2020.2.4,MacIntel,60,1440,900,,0,0.20374688,0,Stimuli/H-8sim2.png,Stimuli/H-8sim3.png,,,,f,0,0.42747,,2,0,2,0,1,,,,,,,,conf_haus,,,,,,,,,,,,,,,,,,,,,,,,,,,MG,4,2,2020-11-15_22h32.34.325,configural_featural,2020.2.4,MacIntel,60,1440,900,,0,0.20374688,0,Stimuli/H-8sim3.png,Stimuli/H-8sim0.png,,,,f,0,0.65058,,3,0,3,0,1,,,,,,,,conf_haus,,,,,,,,,,,,,,,,,,,,,,,,,,,MG,4,2,2020-11-15_22h32.34.325,configural_featural,2020.2.4,MacIntel,60,1440,900,,1,-0.20374688,1,Stimuli/H-8sim3.png,Stimuli/H-8sim3.png,,,,f,1,0.65014,,4,0,4,0,1,,,,,,,,conf_haus,,,,,,,,,,,,,,,,,,,,,,,,,,,MG,4,2,2020-11-15_22h32.34.325,configural_featural,2020.2.4,MacIntel,60,1440,900,,1,-0.20374688,1,Stimuli/H-8sim0.png,Stimuli/H-8sim0.png,,,space,j,0,0.50067,,5,0,5,0,1,,0.130525,,,,,,conf_haus,,,,,,,,,,,,,,,,,,,,,,,,,,,MG,4,2,2020-11-15_22h32.34.325,configural_featural,2020.2.4,MacIntel,60,1440,900,,0,0.20374688,1,Stimuli/H-8sim1.png,Stimuli/H-8sim1.png,,,,j,0,0.55322,,6,0,6,0,1,,,,,,,,conf_haus,,,,,,,,,,,,,,,,,,,,,,,,,,,MG,4,2,2020-11-15_22h32.34.325,configural_featural,2020.2.4,MacIntel,60,1440,900,,0,0.20374688,0,Stimuli/H-8sim1.png,Stimuli/H-8sim3.png,,,,j,1,0.48509,,7,0,7,0,1,,,,,,,,conf_haus,,,,,,,,,,,,,,,,,,,,,,,,,,,MG,4,2,2020-11-15_22h32.34.325,configural_featural,2020.2.4,MacIntel,60,1440,900,,0,-0.20374688,0,Stimuli/H-8sim0.png,Stimuli/H-8sim1.png,,,,f,0,0.64782,,8,0,8,0,1,,,,,,,,conf_haus,,,,,,,,,,,,,,,,,,,,,,,,,,,MG,4,2,2020-11-15_22h32.34.325,configural_featural,2020.2.4,MacIntel,60,1440,900,,0,-0.20374688,0,Stimuli/H-8sim3.png,Stimuli/H-8sim0.png,,,,j,1,0.301805,,9,0,9,0,1,,,,,,,,conf_haus,,,,,,,,,,,,,,,,,,,,,,,,,,,MG,4,2,2020-11-15_22h32.34.325,configural_featural,2020.2.4,MacIntel,60,1440,900,,0,-0.20374688,1,Stimuli/H-8sim1.png,Stimuli/H-8sim1.png,,,,f,1,0.784895,,10,0,10,0,1,,,,,,,,conf_haus,,,,,,,,,,,,,,,,,,,,,,,,,,,MG,4,2,2020-11-15_22h32.34.325,configural_featural,2020.2.4,MacIntel,60,1440,900,,0,-0.20374688,1,Stimuli/H-8sim2.png,Stimuli/H-8sim2.png,,,,j,0,0.43715,,11,0,11,0,1,,,,,,,,conf_haus,,,,,,,,,,,,,,,,,,,,,,,,,,,MG,4,2,2020-11-15_22h32.34.325,configural_featural,2020.2.4,MacIntel,60,1440,900,,0,0.20374688,0,Stimuli/H-8sim0.png,Stimuli/H-8sim2.png,,,,j,1,0.32847,,12,0,12,0,1,,,,,,,,conf_haus,,,,,,,,,,,,,,,,,,,,,,,,,,,MG,4,2,2020-11-15_22h32.34.325,configural_featural,2020.2.4,MacIntel,60,1440,900,,0,-0.20374688,0,Stimuli/H-8sim2.png,Stimuli/H-8sim0.png,,,,f,0,0.63453,,13,0,13,0,1,,,,,,,,conf_haus,,,,,,,,,,,,,,,,,,,,,,,,,,,MG,4,2,2020-11-15_22h32.34.325,configural_featural,2020.2.4,MacIntel,60,1440,900,,1,0.20374688,1,Stimuli/H-8sim2.png,Stimuli/H-8sim2.png,,,,f,1,0.818605,space,14,0,14,0,1,0.033855,,,,,,,conf_haus,,,,,,,,,,,,,,,,,,,,,,,,,,,MG,4,2,2020-11-15_22h32.34.325,configural_featural,2020.2.4,MacIntel,60,1440,900,,0,0.20374688,0,Stimuli/H-8sim0.png,Stimuli/H-8sim1.png,,,,f,0,0.381035,,15,0,15,0,1,,,,,,,,conf_haus,,,,,,,,,,,,,,,,,,,,,,,,,,,MG,4,2,2020-11-15_22h32.34.325,configural_featural,2020.2.4,MacIntel,60,1440,900,,0,0.20374688,1,Stimuli/H-8sim0.png,Stimuli/H-8sim0.png,,,,f,1,0.568105,,16,0,16,0,1,,,,,,,,conf_haus,,,,,,,,,,,,,,,,,,,,,,,,,,,MG,4,2,2020-11-15_22h32.34.325,configural_featural,2020.2.4,MacIntel,60,1440,900,,0,-0.20374688,1,Stimuli/H-8sim0.png,Stimuli/H-8sim0.png,,,,f,1,0.38422,,17,0,17,0,1,,,,,,,,conf_haus,,,,,,,,,,,,,,,,,,,,,,,,,,,MG,4,2,2020-11-15_22h32.34.325,configural_featural,2020.2.4,MacIntel,60,1440,900,,0,-0.20374688,1,Stimuli/H-8sim1.png,Stimuli/H-8sim1.png,,,,f,1,0.41085,,18,0,18,0,1,,,,,,,,conf_haus,,,,,,,,,,,,,,,,,,,,,,,,,,,MG,4,2,2020-11-15_22h32.34.325,configural_featural,2020.2.4,MacIntel,60,1440,900,,0,0.20374688,1,Stimuli/H-8sim2.png,Stimuli/H-8sim2.png,,,,f,1,0.62686,,19,0,19,0,1,,,,,,,,conf_haus,,,,,,,,,,,,,,,,,,,,,,,,,,,MG,4,2,2020-11-15_22h32.34.325,configural_featural,2020.2.4,MacIntel,60,1440,900,,0,-0.20374688,0,Stimuli/H-8sim2.png,Stimuli/H-8sim1.png,,,,j,1,0.586435,,20,0,20,0,1,,,,,,,,conf_haus,,,,,,,,,,,,,,,,,,,,,,,,,,,MG,4,2,2020-11-15_22h32.34.325,configural_featural,2020.2.4,MacIntel,60,1440,900,,1,0.20374688,1,Stimuli/H-8sim1.png,Stimuli/H-8sim1.png,,,,j,0,0.676825,,21,0,21,0,1,,,,,,,,conf_haus,,,,,,,,,,,,,,,,,,,,,,,,,,,MG,4,2,2020-11-15_22h32.34.325,configural_featural,2020.2.4,MacIntel,60,1440,900,,0,0.20374688,0,Stimuli/H-8sim2.png,Stimuli/H-8sim0.png,,space,,j,1,0.88421,,22,0,22,0,1,,,,,,,,conf_haus,,0.151745,,,,,,,,,,,,,,,,,,,,,,,,,MG,4,2,2020-11-15_22h32.34.325,configural_featural,2020.2.4,MacIntel,60,1440,900,,0,-0.20374688,0,Stimuli/H-8sim0.png,Stimuli/H-8sim2.png,,,,j,1,0.500725,,23,0,23,0,1,,,,,,,,conf_haus,,,,,,,,,,,,,,,,,,,,,,,,,,,MG,4,2,2020-11-15_22h32.34.325,configural_featural,2020.2.4,MacIntel,60,1440,900,,0,0.20374688,0,Stimuli/H-8sim3.png,Stimuli/H-8sim1.png,,,,j,1,0.30075,,24,0,24,0,1,,,,,,,,conf_haus,,,,,,,,,,,,,,,,,,,,,,,,,,,MG,4,2,2020-11-15_22h32.34.325,configural_featural,2020.2.4,MacIntel,60,1440,900,,0,-0.20374688,0,Stimuli/H-8sim1.png,Stimuli/H-8sim3.png,,,,f,0,0.618075,,25,0,25,0,1,,,,,,,,conf_haus,,,,,,,,,,,,,,,,,,,,,,,,,,,MG,4,2,2020-11-15_22h32.34.325,configural_featural,2020.2.4,MacIntel,60,1440,900,,0,0.20374688,1,Stimuli/H-8sim0.png,Stimuli/H-8sim0.png,,,,f,1,0.33389,,26,0,26,0,1,,,,,,,,conf_haus,,,,,,,,,,,,,,,,,,,,,,,,,,,MG,4,2,2020-11-15_22h32.34.325,configural_featural,2020.2.4,MacIntel,60,1440,900,,0,0.20374688,1,Stimuli/H-8sim3.png,Stimuli/H-8sim3.png,,,,j,0,0.25,,27,0,27,0,1,,,,,,,,conf_haus,,,,,,,,,,,,,,,,,,,,,,,,,,,MG,4,2,2020-11-15_22h32.34.325,configural_featural,2020.2.4,MacIntel,60,1440,900,,1,-0.20374688,1,Stimuli/H-8sim2.png,Stimuli/H-8sim2.png,,,,f,1,0.71643,space,28,0,28,0,1,0.232155,,,,,,,conf_haus,,,,,,,,,,,,,,,,,,,,,,,,,,,MG,4,2,2020-11-15_22h32.34.325,configural_featural,2020.2.4,MacIntel,60,1440,900,,0,-0.20374688,0,Stimuli/H-8sim1.png,Stimuli/H-8sim0.png,,,,j,1,0.44376,,29,0,29,0,1,,,,,,,,conf_haus,,,,,,,,,,,,,,,,,,,,,,,,,,,MG,4,2,2020-11-15_22h32.34.325,configural_featural,2020.2.4,MacIntel,60,1440,900,,0,-0.20374688,1,Stimuli/H-8sim3.png,Stimuli/H-8sim3.png,,,,f,1,0.514365,,30,0,30,0,1,,,,,,,,conf_haus,,,,,,,,,,,,,,,,,,,,,,,,,,,MG,4,2,2020-11-15_22h32.34.325,configural_featural,2020.2.4,MacIntel,60,1440,900,,0,0.20374688,0,Stimuli/H-8sim2.png,Stimuli/H-8sim1.png,,,,f,0,0.48754,,31,0,31,0,1,,,,,,,,conf_haus,,,,,,,,,,,,,,,,,,,,,,,,,,,MG,4,2,2020-11-15_22h32.34.325,configural_featural,2020.2.4,MacIntel,60,1440,900,,0,-0.20374688,0,Stimuli/H-8sim0.png,Stimuli/H-8sim3.png,,,,j,1,0.585465,,32,0,32,0,1,,,,,,,,conf_haus,,,,,,,,,,,,,,,,,,,,,,,,,,,MG,4,2,2020-11-15_22h32.34.325,configural_featural,2020.2.4,MacIntel,60,1440,900,,0,-0.20374688,1,Stimuli/H-8sim2.png,Stimuli/H-8sim2.png,,,,j,0,0.83444,,33,0,33,0,1,,,,,,,,conf_haus,,,,,,,,,,,,,,,,,,,,,,,,,,,MG,4,2,2020-11-15_22h32.34.325,configural_featural,2020.2.4,MacIntel,60,1440,900,,0,0.20374688,1,Stimuli/H-8sim3.png,Stimuli/H-8sim3.png,,,,f,1,0.47736,,34,0,34,0,1,,,,,,,,conf_haus,,,,,,,,,,,,,,,,,,,,,,,,,,,MG,4,2,2020-11-15_22h32.34.325,configural_featural,2020.2.4,MacIntel,60,1440,900,,0,-0.20374688,0,Stimuli/H-8sim1.png,Stimuli/H-8sim2.png,,,,f,0,0.64995,,35,0,35,0,1,,,,,,,,conf_haus,,,,,,,,,,,,,,,,,,,,,,,,,,,MG,4,2,2020-11-15_22h32.34.325,configural_featural,2020.2.4,MacIntel,60,1440,900,,0,0.20374688,0,Stimuli/H-8sim1.png,Stimuli/H-8sim0.png,,,,f,0,0.334505,,36,0,36,0,1,,,,,,,,conf_haus,,,,,,,,,,,,,,,,,,,,,,,,,,,MG,4,2,2020-11-15_22h32.34.325,configural_featural,2020.2.4,MacIntel,60,1440,900,,0,0.20374688,1,Stimuli/H-8sim0.png,Stimuli/H-8sim0.png,,,,j,0,0.694685,,37,0,37,0,1,,,,,,,,conf_haus,,,,,,,,,,,,,,,,,,,,,,,,,,,MG,4,2,2020-11-15_22h32.34.325,configural_featural,2020.2.4,MacIntel,60,1440,900,,0,0.20374688,0,Stimuli/H-8sim0.png,Stimuli/H-8sim3.png,,,,j,1,0.463585,,38,0,38,0,1,,,,,,,,conf_haus,,,,,,,,,,,,,,,,,,,,,,,,,,,MG,4,2,2020-11-15_22h32.34.325,configural_featural,2020.2.4,MacIntel,60,1440,900,,0,-0.20374688,0,Stimuli/H-8sim3.png,Stimuli/H-8sim1.png,,,,j,1,0.2928,,39,0,39,0,1,,,,,,,,conf_haus,,,,,,,,,,,,,,,,,,,,,,,,,,,MG,4,2,2020-11-15_22h32.34.325,configural_featural,2020.2.4,MacIntel,60,1440,900,,0,-0.20374688,1,Stimuli/H-8sim0.png,Stimuli/H-8sim0.png,,,,f,1,0.53436,,40,0,40,0,1,,,,,,,,conf_haus,,,,,,,,,,,,,,,,,,,,,,,,,,,MG,4,2,2020-11-15_22h32.34.325,configural_featural,2020.2.4,MacIntel,60,1440,900,,0,-0.20374688,1,Stimuli/H-8sim3.png,Stimuli/H-8sim3.png,,,,j,0,0.41752,,41,0,41,0,1,,,,,,,,conf_haus,,,,,,,,,,,,,,,,,,,,,,,,,,,MG,4,2,2020-11-15_22h32.34.325,configural_featural,2020.2.4,MacIntel,60,1440,900,,0,0.20374688,0,Stimuli/H-8sim1.png,Stimuli/H-8sim2.png,,,,f,0,0.570765,,42,0,42,0,1,,,,,,,,conf_haus,,,,,,,,,,,,,,,,,,,,,,,,,,,MG,4,2,2020-11-15_22h32.34.325,configural_featural,2020.2.4,MacIntel,60,1440,900,,0,0.20374688,1,Stimuli/H-8sim1.png,Stimuli/H-8sim1.png,,,,f,1,0.434285,,43,0,43,0,1,,,,,,,,conf_haus,,,,,,,,,,,,,,,,,,,,,,,,,,,MG,4,2,2020-11-15_22h32.34.325,configural_featural,2020.2.4,MacIntel,60,1440,900,,1,-0.20374688,0,Stimuli/H-8sim3.png,Stimuli/H-8sim2.png,,,space,j,1,0.828645,,44,0,44,0,1,,0.150335,,,,,,conf_haus,,,,,,,,,,,,,,,,,,,,,,,,,,,MG,4,2,2020-11-15_22h32.34.325,configural_featural,2020.2.4,MacIntel,60,1440,900,,0,-0.20374688,1,Stimuli/H-8sim1.png,Stimuli/H-8sim1.png,,,,f,1,0.582795,,45,0,45,0,1,,,,,,,,conf_haus,,,,,,,,,,,,,,,,,,,,,,,,,,,MG,4,2,2020-11-15_22h32.34.325,configural_featural,2020.2.4,MacIntel,60,1440,900,,0,0.20374688,0,Stimuli/H-8sim3.png,Stimuli/H-8sim2.png,,,,f,0,0.43046,,46,0,46,0,1,,,,,,,,conf_haus,,,,,,,,,,,,,,,,,,,,,,,,,,,MG,4,2,2020-11-15_22h32.34.325,configural_featural,2020.2.4,MacIntel,60,1440,900,,0,0.20374688,1,Stimuli/H-8sim2.png,Stimuli/H-8sim2.png,,,,f,1,0.470575,,47,0,47,0,1,,,,,,,,conf_haus,,,,,,,,,,,,,,,,,,,,,,,,,,,MG,4,2,2020-11-15_22h32.34.325,configural_featural,2020.2.4,MacIntel,60,1440,900,,,,,,,,,,,,,,,,,,,,,1,2,6,2,1,conf_haus,Designs/instructions_haus_1234.png,,,,,,,,,,,,,,,,,,,,,,,,,,MG,4,2,2020-11-15_22h32.34.325,configural_featural,2020.2.4,MacIntel,60,1440,900,,0,-0.20374688,0,Stimuli/eimd.png,Stimuli/eumu.png,,,,j,1,0.57878,,0,0,0,0,1,,,,,,,,conf_face,,,,,,,,,,,,,,,,,,,,,,,,,,,MG,4,2,2020-11-15_22h32.34.325,configural_featural,2020.2.4,MacIntel,60,1440,900,,0,-0.20374688,1,Stimuli/eimd.png,Stimuli/eimd.png,,,,f,1,0.351115,,1,0,1,0,1,,,,,,,,conf_face,,,,,,,,,,,,,,,,,,,,,,,,,,,MG,4,2,2020-11-15_22h32.34.325,configural_featural,2020.2.4,MacIntel,60,1440,900,,0,0.20374688,1,Stimuli/eumu.png,Stimuli/eumu.png,,,,f,1,0.200555,,2,0,2,0,1,,,,,,,,conf_face,,,,,,,,,,,,,,,,,,,,,,,,,,,MG,4,2,2020-11-15_22h32.34.325,configural_featural,2020.2.4,MacIntel,60,1440,900,,0,0.20374688,0,Stimuli/edmd.png,Stimuli/eumu.png,,,,f,0,0.401505,,3,0,3,0,1,,,,,,,,conf_face,,,,,,,,,,,,,,,,,,,,,,,,,,,MG,4,2,2020-11-15_22h32.34.325,configural_featural,2020.2.4,MacIntel,60,1440,900,,0,-0.20374688,0,Stimuli/eomu.png,Stimuli/edmd.png,,,,f,0,0.35086,,4,0,4,0,1,,,,,,,,conf_face,,,,,,,,,,,,,,,,,,,,,,,,,,,MG,4,2,2020-11-15_22h32.34.325,configural_featural,2020.2.4,MacIntel,60,1440,900,,0,0.20374688,1,Stimuli/eimd.png,Stimuli/eimd.png,,,,f,1,0.370925,,5,0,5,0,1,,,,,,,,conf_face,,,,,,,,,,,,,,,,,,,,,,,,,,,MG,4,2,2020-11-15_22h32.34.325,configural_featural,2020.2.4,MacIntel,60,1440,900,,0,-0.20374688,0,Stimuli/edmd.png,Stimuli/eomu.png,,,,f,0,0.299325,,6,0,6,0,1,,,,,,,,conf_face,,,,,,,,,,,,,,,,,,,,,,,,,,,MG,4,2,2020-11-15_22h32.34.325,configural_featural,2020.2.4,MacIntel,60,1440,900,,0,-0.20374688,1,Stimuli/edmd.png,Stimuli/edmd.png,,,,f,1,0.26107,,7,0,7,0,1,,,,,,,,conf_face,,,,,,,,,,,,,,,,,,,,,,,,,,,MG,4,2,2020-11-15_22h32.34.325,configural_featural,2020.2.4,MacIntel,60,1440,900,,0,0.20374688,1,Stimuli/edmd.png,Stimuli/edmd.png,,,,f,1,0.278115,,8,0,8,0,1,,,,,,,,conf_face,,,,,,,,,,,,,,,,,,,,,,,,,,,MG,4,2,2020-11-15_22h32.34.325,configural_featural,2020.2.4,MacIntel,60,1440,900,,0,0.20374688,1,Stimuli/eomu.png,Stimuli/eomu.png,,,,j,0,0.56047,,9,0,9,0,1,,,,,,,,conf_face,,,,,,,,,,,,,,,,,,,,,,,,,,,MG,4,2,2020-11-15_22h32.34.325,configural_featural,2020.2.4,MacIntel,60,1440,900,,0,0.20374688,0,Stimuli/eumu.png,Stimuli/eimd.png,,,,j,1,0.53413,,10,0,10,0,1,,,,,,,,conf_face,,,,,,,,,,,,,,,,,,,,,,,,,,,MG,4,2,2020-11-15_22h32.34.325,configural_featural,2020.2.4,MacIntel,60,1440,900,,0,0.20374688,0,Stimuli/edmd.png,Stimuli/eomu.png,,,,f,0,0.810245,,11,0,11,0,1,,,,,,,,conf_face,,,,,,,,,,,,,,,,,,,,,,,,,,,MG,4,2,2020-11-15_22h32.34.325,configural_featural,2020.2.4,MacIntel,60,1440,900,,0,-0.20374688,0,Stimuli/edmd.png,Stimuli/eimd.png,,,,f,0,0.60132,,12,0,12,0,1,,,,,,,,conf_face,,,,,,,,,,,,,,,,,,,,,,,,,,,MG,4,2,2020-11-15_22h32.34.325,configural_featural,2020.2.4,MacIntel,60,1440,900,,0,0.20374688,0,Stimuli/eomu.png,Stimuli/edmd.png,,,,f,0,0.35066,,13,0,13,0,1,,,,,,,,conf_face,,,,,,,,,,,,,,,,,,,,,,,,,,,MG,4,2,2020-11-15_22h32.34.325,configural_featural,2020.2.4,MacIntel,60,1440,900,,0,0.20374688,1,Stimuli/eumu.png,Stimuli/eumu.png,,,,f,1,0.28538,,14,0,14,0,1,,,,,,,,conf_face,,,,,,,,,,,,,,,,,,,,,,,,,,,MG,4,2,2020-11-15_22h32.34.325,configural_featural,2020.2.4,MacIntel,60,1440,900,,0,0.20374688,0,Stimuli/eimd.png,Stimuli/edmd.png,,,,f,0,0.3514,,15,0,15,0,1,,,,,,,,conf_face,,,,,,,,,,,,,,,,,,,,,,,,,,,MG,4,2,2020-11-15_22h32.34.325,configural_featural,2020.2.4,MacIntel,60,1440,900,,0,0.20374688,1,Stimuli/edmd.png,Stimuli/edmd.png,,,,f,1,0.183475,,16,0,16,0,1,,,,,,,,conf_face,,,,,,,,,,,,,,,,,,,,,,,,,,,MG,4,2,2020-11-15_22h32.34.325,configural_featural,2020.2.4,MacIntel,60,1440,900,,0,-0.20374688,1,Stimuli/eomu.png,Stimuli/eomu.png,,,,f,1,0.386595,,17,0,17,0,1,,,,,,,,conf_face,,,,,,,,,,,,,,,,,,,,,,,,,,,MG,4,2,2020-11-15_22h32.34.325,configural_featural,2020.2.4,MacIntel,60,1440,900,,0,-0.20374688,1,Stimuli/eumu.png,Stimuli/eumu.png,,,,f,1,0.415735,,18,0,18,0,1,,,,,,,,conf_face,,,,,,,,,,,,,,,,,,,,,,,,,,,MG,4,2,2020-11-15_22h32.34.325,configural_featural,2020.2.4,MacIntel,60,1440,900,,1,0.20374688,0,Stimuli/edmd.png,Stimuli/eimd.png,,,,f,0,0.934025,space,19,0,19,0,1,0.30081,,,,,,,conf_face,,,,,,,,,,,,,,,,,,,,,,,,,,,MG,4,2,2020-11-15_22h32.34.325,configural_featural,2020.2.4,MacIntel,60,1440,900,,0,0.20374688,1,Stimuli/eomu.png,Stimuli/eomu.png,,,,f,1,0.533805,,20,0,20,0,1,,,,,,,,conf_face,,,,,,,,,,,,,,,,,,,,,,,,,,,MG,4,2,2020-11-15_22h32.34.325,configural_featural,2020.2.4,MacIntel,60,1440,900,,0,-0.20374688,0,Stimuli/eumu.png,Stimuli/eomu.png,,,,f,0,0.367205,,21,0,21,0,1,,,,,,,,conf_face,,,,,,,,,,,,,,,,,,,,,,,,,,,MG,4,2,2020-11-15_22h32.34.325,configural_featural,2020.2.4,MacIntel,60,1440,900,,0,-0.20374688,0,Stimuli/eomu.png,Stimuli/eumu.png,,,,f,0,0.35052,,22,0,22,0,1,,,,,,,,conf_face,,,,,,,,,,,,,,,,,,,,,,,,,,,MG,4,2,2020-11-15_22h32.34.325,configural_featural,2020.2.4,MacIntel,60,1440,900,,0,-0.20374688,1,Stimuli/edmd.png,Stimuli/edmd.png,,,,j,0,0.644265,,23,0,23,0,1,,,,,,,,conf_face,,,,,,,,,,,,,,,,,,,,,,,,,,,MG,4,2,2020-11-15_22h32.34.325,configural_featural,2020.2.4,MacIntel,60,1440,900,,0,-0.20374688,1,Stimuli/eomu.png,Stimuli/eomu.png,,,,j,0,0.733485,,24,0,24,0,1,,,,,,,,conf_face,,,,,,,,,,,,,,,,,,,,,,,,,,,MG,4,2,2020-11-15_22h32.34.325,configural_featural,2020.2.4,MacIntel,60,1440,900,,0,-0.20374688,0,Stimuli/eumu.png,Stimuli/edmd.png,,,,j,1,0.68308,,25,0,25,0,1,,,,,,,,conf_face,,,,,,,,,,,,,,,,,,,,,,,,,,,MG,4,2,2020-11-15_22h32.34.325,configural_featural,2020.2.4,MacIntel,60,1440,900,,0,0.20374688,0,Stimuli/eomu.png,Stimuli/eumu.png,,,,j,1,0.80021,,26,0,26,0,1,,,,,,,,conf_face,,,,,,,,,,,,,,,,,,,,,,,,,,,MG,4,2,2020-11-15_22h32.34.325,configural_featural,2020.2.4,MacIntel,60,1440,900,,0,0.20374688,1,Stimuli/eimd.png,Stimuli/eimd.png,,,,j,0,0.47715,,27,0,27,0,1,,,,,,,,conf_face,,,,,,,,,,,,,,,,,,,,,,,,,,,MG,4,2,2020-11-15_22h32.34.325,configural_featural,2020.2.4,MacIntel,60,1440,900,,0,0.20374688,0,Stimuli/eumu.png,Stimuli/eomu.png,,,,j,1,0.417045,,28,0,28,0,1,,,,,,,,conf_face,,,,,,,,,,,,,,,,,,,,,,,,,,,MG,4,2,2020-11-15_22h32.34.325,configural_featural,2020.2.4,MacIntel,60,1440,900,,1,0.20374688,1,Stimuli/eimd.png,Stimuli/eimd.png,,,,j,0,0.74936,space,29,0,29,0,1,0.12725,,,,,,,conf_face,,,,,,,,,,,,,,,,,,,,,,,,,,,MG,4,2,2020-11-15_22h32.34.325,configural_featural,2020.2.4,MacIntel,60,1440,900,,0,-0.20374688,1,Stimuli/eimd.png,Stimuli/eimd.png,,,,f,1,0.400555,,30,0,30,0,1,,,,,,,,conf_face,,,,,,,,,,,,,,,,,,,,,,,,,,,MG,4,2,2020-11-15_22h32.34.325,configural_featural,2020.2.4,MacIntel,60,1440,900,,0,-0.20374688,1,Stimuli/eumu.png,Stimuli/eumu.png,,,,f,1,0.550755,,31,0,31,0,1,,,,,,,,conf_face,,,,,,,,,,,,,,,,,,,,,,,,,,,MG,4,2,2020-11-15_22h32.34.325,configural_featural,2020.2.4,MacIntel,60,1440,900,,0,0.20374688,0,Stimuli/eumu.png,Stimuli/edmd.png,,,,j,1,0.40038,,32,0,32,0,1,,,,,,,,conf_face,,,,,,,,,,,,,,,,,,,,,,,,,,,MG,4,2,2020-11-15_22h32.34.325,configural_featural,2020.2.4,MacIntel,60,1440,900,,0,-0.20374688,0,Stimuli/edmd.png,Stimuli/eumu.png,,,,f,0,0.483345,,33,0,33,0,1,,,,,,,,conf_face,,,,,,,,,,,,,,,,,,,,,,,,,,,MG,4,2,2020-11-15_22h32.34.325,configural_featural,2020.2.4,MacIntel,60,1440,900,,0,-0.20374688,1,Stimuli/eomu.png,Stimuli/eomu.png,,,,j,0,0.65016,,34,0,34,0,1,,,,,,,,conf_face,,,,,,,,,,,,,,,,,,,,,,,,,,,MG,4,2,2020-11-15_22h32.34.325,configural_featural,2020.2.4,MacIntel,60,1440,900,,0,-0.20374688,0,Stimuli/eimd.png,Stimuli/eomu.png,,,,j,1,0.7839,,35,0,35,0,1,,,,,,,,conf_face,,,,,,,,,,,,,,,,,,,,,,,,,,,MG,4,2,2020-11-15_22h32.34.325,configural_featural,2020.2.4,MacIntel,60,1440,900,,1,-0.20374688,1,Stimuli/edmd.png,Stimuli/edmd.png,,,space,f,1,0.883625,,36,0,36,0,1,,0.06092,,,,,,conf_face,,,,,,,,,,,,,,,,,,,,,,,,,,,MG,4,2,2020-11-15_22h32.34.325,configural_featural,2020.2.4,MacIntel,60,1440,900,,0,-0.20374688,0,Stimuli/eomu.png,Stimuli/eimd.png,,,,f,0,0.748165,,37,0,37,0,1,,,,,,,,conf_face,,,,,,,,,,,,,,,,,,,,,,,,,,,MG,4,2,2020-11-15_22h32.34.325,configural_featural,2020.2.4,MacIntel,60,1440,900,,1,-0.20374688,1,Stimuli/eumu.png,Stimuli/eumu.png,,,,f,1,0.455545,,38,0,38,0,1,,,,,,,,conf_face,,,,,,,,,,,,,,,,,,,,,,,,,,,MG,4,2,2020-11-15_22h32.34.325,configural_featural,2020.2.4,MacIntel,60,1440,900,,0,-0.20374688,0,Stimuli/eimd.png,Stimuli/edmd.png,,,,f,0,3.5195,space,39,0,39,0,1,3.233045,,,,,,,conf_face,,,,,,,,,,,,,,,,,,,,,,,,,,,MG,4,2,2020-11-15_22h32.34.325,configural_featural,2020.2.4,MacIntel,60,1440,900,,0,0.20374688,1,Stimuli/edmd.png,Stimuli/edmd.png,,,,f,1,0.58325,,40,0,40,0,1,,,,,,,,conf_face,,,,,,,,,,,,,,,,,,,,,,,,,,,MG,4,2,2020-11-15_22h32.34.325,configural_featural,2020.2.4,MacIntel,60,1440,900,,0,0.20374688,0,Stimuli/eomu.png,Stimuli/eimd.png,,,,f,0,0.60103,,41,0,41,0,1,,,,,,,,conf_face,,,,,,,,,,,,,,,,,,,,,,,,,,,MG,4,2,2020-11-15_22h32.34.325,configural_featural,2020.2.4,MacIntel,60,1440,900,,0,0.20374688,0,Stimuli/eimd.png,Stimuli/eumu.png,,,,f,0,0.451265,,42,0,42,0,1,,,,,,,,conf_face,,,,,,,,,,,,,,,,,,,,,,,,,,,MG,4,2,2020-11-15_22h32.34.325,configural_featural,2020.2.4,MacIntel,60,1440,900,,1,0.20374688,0,Stimuli/eimd.png,Stimuli/eomu.png,,,space,f,0,0.51927,,43,0,43,0,1,,0.15103,,,,,,conf_face,,,,,,,,,,,,,,,,,,,,,,,,,,,MG,4,2,2020-11-15_22h32.34.325,configural_featural,2020.2.4,MacIntel,60,1440,900,,0,0.20374688,1,Stimuli/eumu.png,Stimuli/eumu.png,,,,f,1,0.58136,,44,0,44,0,1,,,,,,,,conf_face,,,,,,,,,,,,,,,,,,,,,,,,,,,MG,4,2,2020-11-15_22h32.34.325,configural_featural,2020.2.4,MacIntel,60,1440,900,,1,0.20374688,1,Stimuli/eomu.png,Stimuli/eomu.png,,,,f,1,0.68342,,45,0,45,0,1,,,,,,,,conf_face,,,,,,,,,,,,,,,,,,,,,,,,,,,MG,4,2,2020-11-15_22h32.34.325,configural_featural,2020.2.4,MacIntel,60,1440,900,,0,-0.20374688,0,Stimuli/eumu.png,Stimuli/eimd.png,,,,f,0,0.754455,,46,0,46,0,1,,,,,,,,conf_face,,,,,,,,,,,,,,,,,,,,,,,,,,,MG,4,2,2020-11-15_22h32.34.325,configural_featural,2020.2.4,MacIntel,60,1440,900,,0,-0.20374688,1,Stimuli/eimd.png,Stimuli/eimd.png,,,,f,1,0.5667,,47,0,47,0,1,,,,,,,,conf_face,,,,,,,,,,,,,,,,,,,,,,,,,,,MG,4,2,2020-11-15_22h32.34.325,configural_featural,2020.2.4,MacIntel,60,1440,900,,,,,,,,,,,,,,,,,,,,,1,3,7,3,1,conf_face,Designs/instructions_face_1234.png,