X Scale,Y Scale,prePrac1Resp.keys,prePrac1Resp.corr,prePrac1Resp.rt,key_resp_10.keys,key_resp_10.corr,key_resp_10.rt,key_resp_13.keys,key_resp_13.corr,key_resp_13.rt,pfix_switches,Pside,ptrial_type1S0D,ptarget,pprobe,prac_resp.keys,prac_resp.corr,prac_resp.rt,prac_fix_resp.keys,prac_fix_resp.corr,pTrials.thisRepN,pTrials.thisTrialN,pTrials.thisN,pTrials.thisIndex,pTrials.ran,participant,design,position,date,expName,psychopyVersion,OS,frameRate,xResolution,yResolution,prac_fix_resp.rt,fix_switches,side,trial_type1S0D,target,probe,key_resp_3.keys,key_resp_4.keys,key_resp_5.keys,key_resp.keys,key_resp.corr,key_resp.rt,key_resp_6.keys,trials.thisRepN,trials.thisTrialN,trials.thisN,trials.thisIndex,trials.ran,key_resp_6.rt,blocks.thisRepN,blocks.thisTrialN,blocks.thisN,blocks.thisIndex,blocks.ran,Block_type,instruction_text
0.0469,0.047,j,1,2.863155,space,1,2.59128,f,1,1.3906,0,0.1622271,0,Stimuli/nemo1.jpg,Stimuli/nemo1.jpg,f,1,1.283485,,1,0,0,0,0,1,sophie,1,2,2020-10-30_18h41.42.132,configural_featural,2020.2.4,MacIntel,60,1792,1120,,,,,,,,,,,,,,,,,,,,,,,,,,
,,,,,,,,,,,0,0.1622271,0,Stimuli/dory2.png,Stimuli/dory2.png,f,1,1.29999,,1,1,0,1,0,1,sophie,1,2,2020-10-30_18h41.42.132,configural_featural,2020.2.4,MacIntel,60,1792,1120,,,,,,,,,,,,,,,,,,,,,,,,,,
,,,,,,,,,,,0,0.1622271,0,Stimuli/dory1.png,Stimuli/dory1.png,f,1,0.61696,,1,2,0,2,0,1,sophie,1,2,2020-10-30_18h41.42.132,configural_featural,2020.2.4,MacIntel,60,1792,1120,,,,,,,,,,,,,,,,,,,,,,,,,,
,,,,,,,,,,,0,0.1622271,1,Stimuli/dory1.png,Stimuli/dory2.png,j,1,1.41543,,1,3,0,3,0,1,sophie,1,2,2020-10-30_18h41.42.132,configural_featural,2020.2.4,MacIntel,60,1792,1120,,,,,,,,,,,,,,,,,,,,,,,,,,
,,,,,,,,,,,1,0.1622271,1,Stimuli/dory2.png,Stimuli/dory1.png,j,1,0.54126,space,1,4,0,4,0,1,sophie,1,2,2020-10-30_18h41.42.132,configural_featural,2020.2.4,MacIntel,60,1792,1120,1.120555,,,,,,,,,,,,,,,,,,,,,,,,,
,,,,,,,,,,,0,0.1622271,1,Stimuli/nemo2.png,Stimuli/nemo1.jpg,j,1,1.26766,,1,5,0,5,0,1,sophie,1,2,2020-10-30_18h41.42.132,configural_featural,2020.2.4,MacIntel,60,1792,1120,,,,,,,,,,,,,,,,,,,,,,,,,,
,,,,,,,,,,,0,-0.1622271,1,Stimuli/nemo1.jpg,Stimuli/nemo2.png,j,1,1.5657,,1,6,0,6,0,1,sophie,1,2,2020-10-30_18h41.42.132,configural_featural,2020.2.4,MacIntel,60,1792,1120,,,,,,,,,,,,,,,,,,,,,,,,,,
,,,,,,,,,,,1,-0.1622271,1,Stimuli/nemo1.jpg,Stimuli/nemo2.png,j,1,0.78818,space,1,7,0,7,0,1,sophie,1,2,2020-10-30_18h41.42.132,configural_featural,2020.2.4,MacIntel,60,1792,1120,1.11619,,,,,,,,,,,,,,,,,,,,,,,,,
,,,,,,,,,,,1,-0.1622271,0,Stimuli/nemo2.png,Stimuli/nemo2.png,f,1,0.68381,,0,8,0,8,0,1,sophie,1,2,2020-10-30_18h41.42.132,configural_featural,2020.2.4,MacIntel,60,1792,1120,,,,,,,,,,,,,,,,,,,,,,,,,,
,,,,,,,,,,,0,-0.1622271,1,Stimuli/dory1.png,Stimuli/dory2.png,j,1,1.51505,,1,9,0,9,0,1,sophie,1,2,2020-10-30_18h41.42.132,configural_featural,2020.2.4,MacIntel,60,1792,1120,,,,,,,,,,,,,,,,,,,,,,,,,,
,,,,,,,,,,,0,-0.1622271,0,Stimuli/dory2.png,Stimuli/dory2.png,f,1,0.634195,,1,10,0,10,0,1,sophie,1,2,2020-10-30_18h41.42.132,configural_featural,2020.2.4,MacIntel,60,1792,1120,,,,,,,,,,,,,,,,,,,,,,,,,,
,,,,,,,,,,,0,-0.1622271,0,Stimuli/nemo2.png,Stimuli/nemo2.png,f,1,0.53235,,1,11,0,11,0,1,sophie,1,2,2020-10-30_18h41.42.132,configural_featural,2020.2.4,MacIntel,60,1792,1120,,,,,,,,,,,,,,,,,,,,,,,,,,
,,,,,,,,,,,,,,,,,,,,,,,,,,sophie,1,2,2020-10-30_18h41.42.132,configural_featural,2020.2.4,MacIntel,60,1792,1120,,0,0.1622271,0,Stimuli/edmd.png,Stimuli/eumu.png,,,,j,1,1.416765,,0,0,0,0,1,,,,,,,,
,,,,,,,,,,,,,,,,,,,,,,,,,,sophie,1,2,2020-10-30_18h41.42.132,configural_featural,2020.2.4,MacIntel,60,1792,1120,,0,0.1622271,1,Stimuli/eimd.png,Stimuli/eimd.png,,,,j,0,0.548485,,1,0,1,0,1,,,,,,,,
,,,,,,,,,,,,,,,,,,,,,,,,,,sophie,1,2,2020-10-30_18h41.42.132,configural_featural,2020.2.4,MacIntel,60,1792,1120,,1,0.1622271,0,Stimuli/eimd.png,Stimuli/eomu.png,,,,j,1,1.95345,space,2,0,2,0,1,0.181735,,,,,,,
,,,,,,,,,,,,,,,,,,,,,,,,,,sophie,1,2,2020-10-30_18h41.42.132,configural_featural,2020.2.4,MacIntel,60,1792,1120,,0,0.1622271,1,Stimuli/edmd.png,Stimuli/edmd.png,,,,j,0,0.56749,,3,0,3,0,1,,,,,,,,
,,,,,,,,,,,,,,,,,,,,,,,,,,sophie,1,2,2020-10-30_18h41.42.132,configural_featural,2020.2.4,MacIntel,60,1792,1120,,1,0.1622271,0,Stimuli/edmd.png,Stimuli/eomu.png,,,,j,1,0.599095,,4,0,4,0,1,,,,,,,,
,,,,,,,,,,,,,,,,,,,,,,,,,,sophie,1,2,2020-10-30_18h41.42.132,configural_featural,2020.2.4,MacIntel,60,1792,1120,,0,-0.1622271,1,Stimuli/eomu.png,Stimuli/eomu.png,,,,j,0,0.50594,,5,0,5,0,1,,,,,,,,
,,,,,,,,,,,,,,,,,,,,,,,,,,sophie,1,2,2020-10-30_18h41.42.132,configural_featural,2020.2.4,MacIntel,60,1792,1120,,0,0.1622271,0,Stimuli/eimd.png,Stimuli/eumu.png,,,,f,0,0.502525,,6,0,6,0,1,,,,,,,,
,,,,,,,,,,,,,,,,,,,,,,,,,,sophie,1,2,2020-10-30_18h41.42.132,configural_featural,2020.2.4,MacIntel,60,1792,1120,,0,-0.1622271,0,Stimuli/eimd.png,Stimuli/eumu.png,,,,j,1,0.581855,,7,0,7,0,1,,,,,,,,
,,,,,,,,,,,,,,,,,,,,,,,,,,sophie,1,2,2020-10-30_18h41.42.132,configural_featural,2020.2.4,MacIntel,60,1792,1120,,0,-0.1622271,1,Stimuli/edmd.png,Stimuli/edmd.png,,,,j,0,1.0992,,8,0,8,0,1,,,,,,,,
,,,,,,,,,,,,,,,,,,,,,,,,,,sophie,1,2,2020-10-30_18h41.42.132,configural_featural,2020.2.4,MacIntel,60,1792,1120,,1,-0.1622271,1,Stimuli/eumu.png,Stimuli/eumu.png,,,,j,0,0.5495,,9,0,9,0,1,,,,,,,,
,,,,,,,,,,,,,,,,,,,,,,,,,,sophie,1,2,2020-10-30_18h41.42.132,configural_featural,2020.2.4,MacIntel,60,1792,1120,,0,-0.1622271,1,Stimuli/eimd.png,Stimuli/eimd.png,,,,f,1,1.16447,,10,0,10,0,1,,,,,,,,
,,,,,,,,,,,,,,,,,,,,,,,,,,sophie,1,2,2020-10-30_18h41.42.132,configural_featural,2020.2.4,MacIntel,60,1792,1120,,0,-0.1622271,0,Stimuli/eumu.png,Stimuli/eimd.png,,,,f,0,0.79742,,11,0,11,0,1,,,,,,,,
,,,,,,,,,,,,,,,,,,,,,,,,,,sophie,1,2,2020-10-30_18h41.42.132,configural_featural,2020.2.4,MacIntel,60,1792,1120,,0,-0.1622271,0,Stimuli/edmd.png,Stimuli/eomu.png,,,,j,1,0.61493,,12,0,12,0,1,,,,,,,,
,,,,,,,,,,,,,,,,,,,,,,,,,,sophie,1,2,2020-10-30_18h41.42.132,configural_featural,2020.2.4,MacIntel,60,1792,1120,,0,-0.1622271,1,Stimuli/eimd.png,Stimuli/eimd.png,,,,j,0,0.78424,,13,0,13,0,1,,,,,,,,
,,,,,,,,,,,,,,,,,,,,,,,,,,sophie,1,2,2020-10-30_18h41.42.132,configural_featural,2020.2.4,MacIntel,60,1792,1120,,1,0.1622271,0,Stimuli/eumu.png,Stimuli/eimd.png,,,,j,1,0.914455,,14,0,14,0,1,,,,,,,,
,,,,,,,,,,,,,,,,,,,,,,,,,,sophie,1,2,2020-10-30_18h41.42.132,configural_featural,2020.2.4,MacIntel,60,1792,1120,,0,0.1622271,0,Stimuli/eumu.png,Stimuli/edmd.png,,,,f,0,1.117935,,15,0,15,0,1,,,,,,,,
,,,,,,,,,,,,,,,,,,,,,,,,,,sophie,1,2,2020-10-30_18h41.42.132,configural_featural,2020.2.4,MacIntel,60,1792,1120,,0,0.1622271,1,Stimuli/eumu.png,Stimuli/eumu.png,,,,j,0,1.36937,,16,0,16,0,1,,,,,,,,
,,,,,,,,,,,,,,,,,,,,,,,,,,sophie,1,2,2020-10-30_18h41.42.132,configural_featural,2020.2.4,MacIntel,60,1792,1120,,0,-0.1622271,1,Stimuli/edmd.png,Stimuli/edmd.png,,,,f,1,0.681285,,17,0,17,0,1,,,,,,,,
,,,,,,,,,,,,,,,,,,,,,,,,,,sophie,1,2,2020-10-30_18h41.42.132,configural_featural,2020.2.4,MacIntel,60,1792,1120,,0,0.1622271,0,Stimuli/edmd.png,Stimuli/eimd.png,,,,f,0,0.930945,,18,0,18,0,1,,,,,,,,
,,,,,,,,,,,,,,,,,,,,,,,,,,sophie,1,2,2020-10-30_18h41.42.132,configural_featural,2020.2.4,MacIntel,60,1792,1120,,0,0.1622271,0,Stimuli/eomu.png,Stimuli/edmd.png,,,,j,1,0.54873,,19,0,19,0,1,,,,,,,,
,,,,,,,,,,,,,,,,,,,,,,,,,,sophie,1,2,2020-10-30_18h41.42.132,configural_featural,2020.2.4,MacIntel,60,1792,1120,,0,-0.1622271,1,Stimuli/eumu.png,Stimuli/eumu.png,,,,f,1,1.0336,,20,0,20,0,1,,,,,,,,
,,,,,,,,,,,,,,,,,,,,,,,,,,sophie,1,2,2020-10-30_18h41.42.132,configural_featural,2020.2.4,MacIntel,60,1792,1120,,0,0.1622271,0,Stimuli/eomu.png,Stimuli/eumu.png,,,,j,1,1.022475,,21,0,21,0,1,,,,,,,,
,,,,,,,,,,,,,,,,,,,,,,,,,,sophie,1,2,2020-10-30_18h41.42.132,configural_featural,2020.2.4,MacIntel,60,1792,1120,,1,-0.1622271,1,Stimuli/eomu.png,Stimuli/eomu.png,,,,j,0,0.432405,,22,0,22,0,1,,,,,,,,
,,,,,,,,,,,,,,,,,,,,,,,,,,sophie,1,2,2020-10-30_18h41.42.132,configural_featural,2020.2.4,MacIntel,60,1792,1120,,0,0.1622271,1,Stimuli/eomu.png,Stimuli/eomu.png,,,,j,0,1.18077,,23,0,23,0,1,,,,,,,,
,,,,,,,,,,,,,,,,,,,,,,,,,,sophie,1,2,2020-10-30_18h41.42.132,configural_featural,2020.2.4,MacIntel,60,1792,1120,,0,-0.1622271,1,Stimuli/eomu.png,Stimuli/eomu.png,,,,f,1,0.801015,,24,0,24,0,1,,,,,,,,
,,,,,,,,,,,,,,,,,,,,,,,,,,sophie,1,2,2020-10-30_18h41.42.132,configural_featural,2020.2.4,MacIntel,60,1792,1120,,0,-0.1622271,0,Stimuli/eomu.png,Stimuli/eimd.png,,,,j,1,0.39939,,25,0,25,0,1,,,,,,,,
,,,,,,,,,,,,,,,,,,,,,,,,,,sophie,1,2,2020-10-30_18h41.42.132,configural_featural,2020.2.4,MacIntel,60,1792,1120,,0,-0.1622271,0,Stimuli/eimd.png,Stimuli/eomu.png,,,,j,1,0.448685,,26,0,26,0,1,,,,,,,,
,,,,,,,,,,,,,,,,,,,,,,,,,,sophie,1,2,2020-10-30_18h41.42.132,configural_featural,2020.2.4,MacIntel,60,1792,1120,,0,-0.1622271,1,Stimuli/eimd.png,Stimuli/eimd.png,,,,f,1,0.287785,,27,0,27,0,1,,,,,,,,
,,,,,,,,,,,,,,,,,,,,,,,,,,sophie,1,2,2020-10-30_18h41.42.132,configural_featural,2020.2.4,MacIntel,60,1792,1120,,0,-0.1622271,0,Stimuli/eimd.png,Stimuli/edmd.png,,,,j,1,0.874135,,28,0,28,0,1,,,,,,,,
,,,,,,,,,,,,,,,,,,,,,,,,,,sophie,1,2,2020-10-30_18h41.42.132,configural_featural,2020.2.4,MacIntel,60,1792,1120,,0,0.1622271,1,Stimuli/eomu.png,Stimuli/eomu.png,,,,f,1,0.831285,,29,0,29,0,1,,,,,,,,
,,,,,,,,,,,,,,,,,,,,,,,,,,sophie,1,2,2020-10-30_18h41.42.132,configural_featural,2020.2.4,MacIntel,60,1792,1120,,0,0.1622271,1,Stimuli/edmd.png,Stimuli/edmd.png,,,,j,0,0.630825,,30,0,30,0,1,,,,,,,,
,,,,,,,,,,,,,,,,,,,,,,,,,,sophie,1,2,2020-10-30_18h41.42.132,configural_featural,2020.2.4,MacIntel,60,1792,1120,,0,0.1622271,0,Stimuli/eumu.png,Stimuli/eomu.png,,,,j,1,0.715495,,31,0,31,0,1,,,,,,,,
,,,,,,,,,,,,,,,,,,,,,,,,,,sophie,1,2,2020-10-30_18h41.42.132,configural_featural,2020.2.4,MacIntel,60,1792,1120,,0,0.1622271,1,Stimuli/eumu.png,Stimuli/eumu.png,,,,j,0,1.016,,32,0,32,0,1,,,,,,,,
,,,,,,,,,,,,,,,,,,,,,,,,,,sophie,1,2,2020-10-30_18h41.42.132,configural_featural,2020.2.4,MacIntel,60,1792,1120,,0,0.1622271,1,Stimuli/eimd.png,Stimuli/eimd.png,,,,f,1,0.33409,,33,0,33,0,1,,,,,,,,
,,,,,,,,,,,,,,,,,,,,,,,,,,sophie,1,2,2020-10-30_18h41.42.132,configural_featural,2020.2.4,MacIntel,60,1792,1120,,1,-0.1622271,0,Stimuli/eumu.png,Stimuli/eomu.png,,,,j,1,0.483715,,34,0,34,0,1,,,,,,,,
,,,,,,,,,,,,,,,,,,,,,,,,,,sophie,1,2,2020-10-30_18h41.42.132,configural_featural,2020.2.4,MacIntel,60,1792,1120,,0,0.1622271,0,Stimuli/eomu.png,Stimuli/eimd.png,,,,j,1,1.36534,,35,0,35,0,1,,,,,,,,
,,,,,,,,,,,,,,,,,,,,,,,,,,sophie,1,2,2020-10-30_18h41.42.132,configural_featural,2020.2.4,MacIntel,60,1792,1120,,0,-0.1622271,0,Stimuli/edmd.png,Stimuli/eimd.png,,,,j,1,0.53202,,36,0,36,0,1,,,,,,,,
,,,,,,,,,,,,,,,,,,,,,,,,,,sophie,1,2,2020-10-30_18h41.42.132,configural_featural,2020.2.4,MacIntel,60,1792,1120,,0,-0.1622271,0,Stimuli/eomu.png,Stimuli/eumu.png,,,,j,1,0.755115,,37,0,37,0,1,,,,,,,,
,,,,,,,,,,,,,,,,,,,,,,,,,,sophie,1,2,2020-10-30_18h41.42.132,configural_featural,2020.2.4,MacIntel,60,1792,1120,,0,0.1622271,1,Stimuli/eomu.png,Stimuli/eomu.png,,,,j,0,0.573565,,38,0,38,0,1,,,,,,,,
,,,,,,,,,,,,,,,,,,,,,,,,,,sophie,1,2,2020-10-30_18h41.42.132,configural_featural,2020.2.4,MacIntel,60,1792,1120,,0,-0.1622271,1,Stimuli/eumu.png,Stimuli/eumu.png,,,,f,1,0.614355,,39,0,39,0,1,,,,,,,,
,,,,,,,,,,,,,,,,,,,,,,,,,,sophie,1,2,2020-10-30_18h41.42.132,configural_featural,2020.2.4,MacIntel,60,1792,1120,,0,-0.1622271,0,Stimuli/eumu.png,Stimuli/edmd.png,,,,j,1,0.682815,,40,0,40,0,1,,,,,,,,
,,,,,,,,,,,,,,,,,,,,,,,,,,sophie,1,2,2020-10-30_18h41.42.132,configural_featural,2020.2.4,MacIntel,60,1792,1120,,0,0.1622271,1,Stimuli/edmd.png,Stimuli/edmd.png,,,,j,0,0.901145,,41,0,41,0,1,,,,,,,,
,,,,,,,,,,,,,,,,,,,,,,,,,,sophie,1,2,2020-10-30_18h41.42.132,configural_featural,2020.2.4,MacIntel,60,1792,1120,,0,0.1622271,1,Stimuli/eimd.png,Stimuli/eimd.png,,,,j,0,2.69856,,42,0,42,0,1,,,,,,,,
,,,,,,,,,,,,,,,,,,,,,,,,,,sophie,1,2,2020-10-30_18h41.42.132,configural_featural,2020.2.4,MacIntel,60,1792,1120,,0,0.1622271,0,Stimuli/eimd.png,Stimuli/edmd.png,,,,j,1,0.6477,,43,0,43,0,1,,,,,,,,
,,,,,,,,,,,,,,,,,,,,,,,,,,sophie,1,2,2020-10-30_18h41.42.132,configural_featural,2020.2.4,MacIntel,60,1792,1120,,0,-0.1622271,0,Stimuli/eomu.png,Stimuli/edmd.png,,,,j,1,1.516485,,44,0,44,0,1,,,,,,,,
,,,,,,,,,,,,,,,,,,,,,,,,,,sophie,1,2,2020-10-30_18h41.42.132,configural_featural,2020.2.4,MacIntel,60,1792,1120,,0,-0.1622271,0,Stimuli/edmd.png,Stimuli/eumu.png,,,,j,1,0.405095,,45,0,45,0,1,,,,,,,,
,,,,,,,,,,,,,,,,,,,,,,,,,,sophie,1,2,2020-10-30_18h41.42.132,configural_featural,2020.2.4,MacIntel,60,1792,1120,,0,-0.1622271,1,Stimuli/edmd.png,Stimuli/edmd.png,,,,j,0,0.401335,,46,0,46,0,1,,,,,,,,
,,,,,,,,,,,,,,,,,,,,,,,,,,sophie,1,2,2020-10-30_18h41.42.132,configural_featural,2020.2.4,MacIntel,60,1792,1120,,0,0.1622271,1,Stimuli/eumu.png,Stimuli/eumu.png,,,,f,1,0.464415,,47,0,47,0,1,,,,,,,,
,,,,,,,,,,,,,,,,,,,,,,,,,,sophie,1,2,2020-10-30_18h41.42.132,configural_featural,2020.2.4,MacIntel,60,1792,1120,,,,,,,,,,,,,,,,,,,,0,0,0,0,1,conf_face,Designs/instructions_face_1234.png
,,,,,,,,,,,,,,,,,,,,,,,,,,sophie,1,2,2020-10-30_18h41.42.132,configural_featural,2020.2.4,MacIntel,60,1792,1120,,0,-0.1622271,0,Stimuli/H-8sim2.png,Stimuli/H-8sim3.png,,,,j,1,0.651345,,0,0,0,0,1,,,,,,,,
,,,,,,,,,,,,,,,,,,,,,,,,,,sophie,1,2,2020-10-30_18h41.42.132,configural_featural,2020.2.4,MacIntel,60,1792,1120,,0,0.1622271,1,Stimuli/H-8sim0.png,Stimuli/H-8sim0.png,,,,f,1,1.65239,,1,0,1,0,1,,,,,,,,
,,,,,,,,,,,,,,,,,,,,,,,,,,sophie,1,2,2020-10-30_18h41.42.132,configural_featural,2020.2.4,MacIntel,60,1792,1120,,0,-0.1622271,0,Stimuli/H-8sim2.png,Stimuli/H-8sim1.png,,,,f,0,1.969475,,2,0,2,0,1,,,,,,,,
,,,,,,,,,,,,,,,,,,,,,,,,,,sophie,1,2,2020-10-30_18h41.42.132,configural_featural,2020.2.4,MacIntel,60,1792,1120,,0,0.1622271,1,Stimuli/H-8sim2.png,Stimuli/H-8sim2.png,,,,f,1,0.54845,,3,0,3,0,1,,,,,,,,
,,,,,,,,,,,,,,,,,,,,,,,,,,sophie,1,2,2020-10-30_18h41.42.132,configural_featural,2020.2.4,MacIntel,60,1792,1120,,0,0.1622271,1,Stimuli/H-8sim3.png,Stimuli/H-8sim3.png,,,,j,0,0.78402,,4,0,4,0,1,,,,,,,,
,,,,,,,,,,,,,,,,,,,,,,,,,,sophie,1,2,2020-10-30_18h41.42.132,configural_featural,2020.2.4,MacIntel,60,1792,1120,,1,-0.1622271,0,Stimuli/H-8sim0.png,Stimuli/H-8sim3.png,,,,f,0,0.684385,,5,0,5,0,1,,,,,,,,
,,,,,,,,,,,,,,,,,,,,,,,,,,sophie,1,2,2020-10-30_18h41.42.132,configural_featural,2020.2.4,MacIntel,60,1792,1120,,1,0.1622271,0,Stimuli/H-8sim0.png,Stimuli/H-8sim1.png,,,,j,1,0.4986,,6,0,6,0,1,,,,,,,,
,,,,,,,,,,,,,,,,,,,,,,,,,,sophie,1,2,2020-10-30_18h41.42.132,configural_featural,2020.2.4,MacIntel,60,1792,1120,,0,0.1622271,0,Stimuli/H-8sim0.png,Stimuli/H-8sim2.png,,,,j,1,1.16652,,7,0,7,0,1,,,,,,,,
,,,,,,,,,,,,,,,,,,,,,,,,,,sophie,1,2,2020-10-30_18h41.42.132,configural_featural,2020.2.4,MacIntel,60,1792,1120,,0,-0.1622271,1,Stimuli/H-8sim0.png,Stimuli/H-8sim0.png,,,,f,1,0.581975,,8,0,8,0,1,,,,,,,,
,,,,,,,,,,,,,,,,,,,,,,,,,,sophie,1,2,2020-10-30_18h41.42.132,configural_featural,2020.2.4,MacIntel,60,1792,1120,,0,0.1622271,1,Stimuli/H-8sim1.png,Stimuli/H-8sim1.png,,,,f,1,0.91443,,9,0,9,0,1,,,,,,,,
,,,,,,,,,,,,,,,,,,,,,,,,,,sophie,1,2,2020-10-30_18h41.42.132,configural_featural,2020.2.4,MacIntel,60,1792,1120,,0,0.1622271,1,Stimuli/H-8sim3.png,Stimuli/H-8sim3.png,,,,f,1,0.58095,,10,0,10,0,1,,,,,,,,
,,,,,,,,,,,,,,,,,,,,,,,,,,sophie,1,2,2020-10-30_18h41.42.132,configural_featural,2020.2.4,MacIntel,60,1792,1120,,0,0.1622271,0,Stimuli/H-8sim3.png,Stimuli/H-8sim0.png,,,,f,0,2.197815,,11,0,11,0,1,,,,,,,,
,,,,,,,,,,,,,,,,,,,,,,,,,,sophie,1,2,2020-10-30_18h41.42.132,configural_featural,2020.2.4,MacIntel,60,1792,1120,,0,-0.1622271,0,Stimuli/H-8sim3.png,Stimuli/H-8sim2.png,,,,j,1,0.473545,,12,0,12,0,1,,,,,,,,
,,,,,,,,,,,,,,,,,,,,,,,,,,sophie,1,2,2020-10-30_18h41.42.132,configural_featural,2020.2.4,MacIntel,60,1792,1120,,0,0.1622271,1,Stimuli/H-8sim2.png,Stimuli/H-8sim2.png,,,,j,0,0.431385,,13,0,13,0,1,,,,,,,,
,,,,,,,,,,,,,,,,,,,,,,,,,,sophie,1,2,2020-10-30_18h41.42.132,configural_featural,2020.2.4,MacIntel,60,1792,1120,,0,-0.1622271,0,Stimuli/H-8sim3.png,Stimuli/H-8sim1.png,,,,j,1,0.439485,,14,0,14,0,1,,,,,,,,
,,,,,,,,,,,,,,,,,,,,,,,,,,sophie,1,2,2020-10-30_18h41.42.132,configural_featural,2020.2.4,MacIntel,60,1792,1120,,0,-0.1622271,1,Stimuli/H-8sim2.png,Stimuli/H-8sim2.png,,,,j,0,1.466735,,15,0,15,0,1,,,,,,,,
,,,,,,,,,,,,,,,,,,,,,,,,,,sophie,1,2,2020-10-30_18h41.42.132,configural_featural,2020.2.4,MacIntel,60,1792,1120,,0,0.1622271,0,Stimuli/H-8sim2.png,Stimuli/H-8sim0.png,,,,j,1,0.99928,,16,0,16,0,1,,,,,,,,
,,,,,,,,,,,,,,,,,,,,,,,,,,sophie,1,2,2020-10-30_18h41.42.132,configural_featural,2020.2.4,MacIntel,60,1792,1120,,0,0.1622271,1,Stimuli/H-8sim0.png,Stimuli/H-8sim0.png,,,,f,1,0.55041,,17,0,17,0,1,,,,,,,,
,,,,,,,,,,,,,,,,,,,,,,,,,,sophie,1,2,2020-10-30_18h41.42.132,configural_featural,2020.2.4,MacIntel,60,1792,1120,,0,0.1622271,1,Stimuli/H-8sim1.png,Stimuli/H-8sim1.png,,,,f,1,1.35764,,18,0,18,0,1,,,,,,,,
,,,,,,,,,,,,,,,,,,,,,,,,,,sophie,1,2,2020-10-30_18h41.42.132,configural_featural,2020.2.4,MacIntel,60,1792,1120,,0,-0.1622271,0,Stimuli/H-8sim3.png,Stimuli/H-8sim0.png,,,,j,1,0.380795,,19,0,19,0,1,,,,,,,,
,,,,,,,,,,,,,,,,,,,,,,,,,,sophie,1,2,2020-10-30_18h41.42.132,configural_featural,2020.2.4,MacIntel,60,1792,1120,,0,-0.1622271,1,Stimuli/H-8sim3.png,Stimuli/H-8sim3.png,,,,j,0,0.4164,,20,0,20,0,1,,,,,,,,
,,,,,,,,,,,,,,,,,,,,,,,,,,sophie,1,2,2020-10-30_18h41.42.132,configural_featural,2020.2.4,MacIntel,60,1792,1120,,0,0.1622271,1,Stimuli/H-8sim0.png,Stimuli/H-8sim0.png,,,,f,1,0.55403,,21,0,21,0,1,,,,,,,,
,,,,,,,,,,,,,,,,,,,,,,,,,,sophie,1,2,2020-10-30_18h41.42.132,configural_featural,2020.2.4,MacIntel,60,1792,1120,,1,0.1622271,0,Stimuli/H-8sim2.png,Stimuli/H-8sim1.png,,,,f,0,0.498685,,22,0,22,0,1,,,,,,,,
,,,,,,,,,,,,,,,,,,,,,,,,,,sophie,1,2,2020-10-30_18h41.42.132,configural_featural,2020.2.4,MacIntel,60,1792,1120,,0,-0.1622271,0,Stimuli/H-8sim0.png,Stimuli/H-8sim1.png,,,,f,0,0.564875,,23,0,23,0,1,,,,,,,,
,,,,,,,,,,,,,,,,,,,,,,,,,,sophie,1,2,2020-10-30_18h41.42.132,configural_featural,2020.2.4,MacIntel,60,1792,1120,,0,-0.1622271,1,Stimuli/H-8sim1.png,Stimuli/H-8sim1.png,,,,f,1,0.565995,,24,0,24,0,1,,,,,,,,
,,,,,,,,,,,,,,,,,,,,,,,,,,sophie,1,2,2020-10-30_18h41.42.132,configural_featural,2020.2.4,MacIntel,60,1792,1120,,1,-0.1622271,1,Stimuli/H-8sim2.png,Stimuli/H-8sim2.png,,,,f,1,0.465215,,25,0,25,0,1,,,,,,,,
,,,,,,,,,,,,,,,,,,,,,,,,,,sophie,1,2,2020-10-30_18h41.42.132,configural_featural,2020.2.4,MacIntel,60,1792,1120,,0,0.1622271,0,Stimuli/H-8sim1.png,Stimuli/H-8sim0.png,,,,f,0,0.465305,,26,0,26,0,1,,,,,,,,
,,,,,,,,,,,,,,,,,,,,,,,,,,sophie,1,2,2020-10-30_18h41.42.132,configural_featural,2020.2.4,MacIntel,60,1792,1120,,0,0.1622271,0,Stimuli/H-8sim0.png,Stimuli/H-8sim3.png,,,,j,1,0.73822,,27,0,27,0,1,,,,,,,,
,,,,,,,,,,,,,,,,,,,,,,,,,,sophie,1,2,2020-10-30_18h41.42.132,configural_featural,2020.2.4,MacIntel,60,1792,1120,,0,-0.1622271,1,Stimuli/H-8sim0.png,Stimuli/H-8sim0.png,,,,f,1,0.600055,,28,0,28,0,1,,,,,,,,
,,,,,,,,,,,,,,,,,,,,,,,,,,sophie,1,2,2020-10-30_18h41.42.132,configural_featural,2020.2.4,MacIntel,60,1792,1120,,0,0.1622271,0,Stimuli/H-8sim1.png,Stimuli/H-8sim2.png,,,,j,1,0.483585,,29,0,29,0,1,,,,,,,,
,,,,,,,,,,,,,,,,,,,,,,,,,,sophie,1,2,2020-10-30_18h41.42.132,configural_featural,2020.2.4,MacIntel,60,1792,1120,,0,0.1622271,1,Stimuli/H-8sim3.png,Stimuli/H-8sim3.png,,,,f,1,0.456865,,30,0,30,0,1,,,,,,,,
,,,,,,,,,,,,,,,,,,,,,,,,,,sophie,1,2,2020-10-30_18h41.42.132,configural_featural,2020.2.4,MacIntel,60,1792,1120,,0,-0.1622271,0,Stimuli/H-8sim2.png,Stimuli/H-8sim0.png,,,,j,1,0.41431,,31,0,31,0,1,,,,,,,,
,,,,,,,,,,,,,,,,,,,,,,,,,,sophie,1,2,2020-10-30_18h41.42.132,configural_featural,2020.2.4,MacIntel,60,1792,1120,,0,0.1622271,1,Stimuli/H-8sim1.png,Stimuli/H-8sim1.png,,,,f,1,0.440735,,32,0,32,0,1,,,,,,,,
,,,,,,,,,,,,,,,,,,,,,,,,,,sophie,1,2,2020-10-30_18h41.42.132,configural_featural,2020.2.4,MacIntel,60,1792,1120,,1,0.1622271,0,Stimuli/H-8sim1.png,Stimuli/H-8sim3.png,,,,j,1,0.399285,,33,0,33,0,1,,,,,,,,
,,,,,,,,,,,,,,,,,,,,,,,,,,sophie,1,2,2020-10-30_18h41.42.132,configural_featural,2020.2.4,MacIntel,60,1792,1120,,0,0.1622271,0,Stimuli/H-8sim3.png,Stimuli/H-8sim1.png,,,,j,1,0.650135,,34,0,34,0,1,,,,,,,,
,,,,,,,,,,,,,,,,,,,,,,,,,,sophie,1,2,2020-10-30_18h41.42.132,configural_featural,2020.2.4,MacIntel,60,1792,1120,,0,-0.1622271,1,Stimuli/H-8sim3.png,Stimuli/H-8sim3.png,,,,f,1,0.499375,,35,0,35,0,1,,,,,,,,
,,,,,,,,,,,,,,,,,,,,,,,,,,sophie,1,2,2020-10-30_18h41.42.132,configural_featural,2020.2.4,MacIntel,60,1792,1120,,0,-0.1622271,1,Stimuli/H-8sim1.png,Stimuli/H-8sim1.png,,,,f,1,0.439615,,36,0,36,0,1,,,,,,,,
,,,,,,,,,,,,,,,,,,,,,,,,,,sophie,1,2,2020-10-30_18h41.42.132,configural_featural,2020.2.4,MacIntel,60,1792,1120,,0,-0.1622271,0,Stimuli/H-8sim1.png,Stimuli/H-8sim2.png,,,,j,1,0.68442,,37,0,37,0,1,,,,,,,,
,,,,,,,,,,,,,,,,,,,,,,,,,,sophie,1,2,2020-10-30_18h41.42.132,configural_featural,2020.2.4,MacIntel,60,1792,1120,,0,-0.1622271,0,Stimuli/H-8sim1.png,Stimuli/H-8sim0.png,,,,f,0,1.09838,,38,0,38,0,1,,,,,,,,
,,,,,,,,,,,,,,,,,,,,,,,,,,sophie,1,2,2020-10-30_18h41.42.132,configural_featural,2020.2.4,MacIntel,60,1792,1120,,0,0.1622271,0,Stimuli/H-8sim3.png,Stimuli/H-8sim2.png,,,,j,1,0.498315,,39,0,39,0,1,,,,,,,,
,,,,,,,,,,,,,,,,,,,,,,,,,,sophie,1,2,2020-10-30_18h41.42.132,configural_featural,2020.2.4,MacIntel,60,1792,1120,,0,-0.1622271,1,Stimuli/H-8sim3.png,Stimuli/H-8sim3.png,,,,f,1,0.63233,,40,0,40,0,1,,,,,,,,
,,,,,,,,,,,,,,,,,,,,,,,,,,sophie,1,2,2020-10-30_18h41.42.132,configural_featural,2020.2.4,MacIntel,60,1792,1120,,1,-0.1622271,1,Stimuli/H-8sim1.png,Stimuli/H-8sim1.png,,,,f,1,0.505605,,41,0,41,0,1,,,,,,,,
,,,,,,,,,,,,,,,,,,,,,,,,,,sophie,1,2,2020-10-30_18h41.42.132,configural_featural,2020.2.4,MacIntel,60,1792,1120,,0,-0.1622271,0,Stimuli/H-8sim0.png,Stimuli/H-8sim2.png,,,,f,0,0.871445,,42,0,42,0,1,,,,,,,,
,,,,,,,,,,,,,,,,,,,,,,,,,,sophie,1,2,2020-10-30_18h41.42.132,configural_featural,2020.2.4,MacIntel,60,1792,1120,,0,0.1622271,0,Stimuli/H-8sim2.png,Stimuli/H-8sim3.png,,,,f,0,0.614205,,43,0,43,0,1,,,,,,,,
,,,,,,,,,,,,,,,,,,,,,,,,,,sophie,1,2,2020-10-30_18h41.42.132,configural_featural,2020.2.4,MacIntel,60,1792,1120,,0,0.1622271,1,Stimuli/H-8sim2.png,Stimuli/H-8sim2.png,,,,f,1,0.42444,,44,0,44,0,1,,,,,,,,
,,,,,,,,,,,,,,,,,,,,,,,,,,sophie,1,2,2020-10-30_18h41.42.132,configural_featural,2020.2.4,MacIntel,60,1792,1120,,0,-0.1622271,1,Stimuli/H-8sim0.png,Stimuli/H-8sim0.png,,,,f,1,0.683605,,45,0,45,0,1,,,,,,,,
,,,,,,,,,,,,,,,,,,,,,,,,,,sophie,1,2,2020-10-30_18h41.42.132,configural_featural,2020.2.4,MacIntel,60,1792,1120,,0,-0.1622271,0,Stimuli/H-8sim1.png,Stimuli/H-8sim3.png,,,,j,1,0.648435,,46,0,46,0,1,,,,,,,,
,,,,,,,,,,,,,,,,,,,,,,,,,,sophie,1,2,2020-10-30_18h41.42.132,configural_featural,2020.2.4,MacIntel,60,1792,1120,,0,-0.1622271,1,Stimuli/H-8sim2.png,Stimuli/H-8sim2.png,,,,j,0,1.672635,,47,0,47,0,1,,,,,,,,
,,,,,,,,,,,,,,,,,,,,,,,,,,sophie,1,2,2020-10-30_18h41.42.132,configural_featural,2020.2.4,MacIntel,60,1792,1120,,,,,,,,,,,,,,,,,,,,0,1,1,1,1,conf_haus,Designs/instructions_haus_1234.png
,,,,,,,,,,,,,,,,,,,,,,,,,,sophie,1,2,2020-10-30_18h41.42.132,configural_featural,2020.2.4,MacIntel,60,1792,1120,,0,0.1622271,0,Stimuli/f24.png,Stimuli/f131.png,,,,j,1,3.108195,,0,0,0,0,1,,,,,,,,
,,,,,,,,,,,,,,,,,,,,,,,,,,sophie,1,2,2020-10-30_18h41.42.132,configural_featural,2020.2.4,MacIntel,60,1792,1120,,0,-0.1622271,1,Stimuli/f131.png,Stimuli/f131.png,,,,f,1,0.407315,,1,0,1,0,1,,,,,,,,
,,,,,,,,,,,,,,,,,,,,,,,,,,sophie,1,2,2020-10-30_18h41.42.132,configural_featural,2020.2.4,MacIntel,60,1792,1120,,0,-0.1622271,0,Stimuli/f131.png,Stimuli/f142.png,,,,j,1,0.498245,,2,0,2,0,1,,,,,,,,
,,,,,,,,,,,,,,,,,,,,,,,,,,sophie,1,2,2020-10-30_18h41.42.132,configural_featural,2020.2.4,MacIntel,60,1792,1120,,0,0.1622271,0,Stimuli/f142.png,Stimuli/f15.png,,,,f,0,0.4824,,3,0,3,0,1,,,,,,,,
,,,,,,,,,,,,,,,,,,,,,,,,,,sophie,1,2,2020-10-30_18h41.42.132,configural_featural,2020.2.4,MacIntel,60,1792,1120,,0,-0.1622271,1,Stimuli/f142.png,Stimuli/f142.png,,,,f,1,0.44819,,4,0,4,0,1,,,,,,,,
,,,,,,,,,,,,,,,,,,,,,,,,,,sophie,1,2,2020-10-30_18h41.42.132,configural_featural,2020.2.4,MacIntel,60,1792,1120,,1,0.1622271,1,Stimuli/f15.png,Stimuli/f15.png,,,,f,1,0.565835,,5,0,5,0,1,,,,,,,,
,,,,,,,,,,,,,,,,,,,,,,,,,,sophie,1,2,2020-10-30_18h41.42.132,configural_featural,2020.2.4,MacIntel,60,1792,1120,,0,-0.1622271,1,Stimuli/f24.png,Stimuli/f24.png,,,,f,1,0.816995,,6,0,6,0,1,,,,,,,,
,,,,,,,,,,,,,,,,,,,,,,,,,,sophie,1,2,2020-10-30_18h41.42.132,configural_featural,2020.2.4,MacIntel,60,1792,1120,,0,-0.1622271,0,Stimuli/f131.png,Stimuli/f15.png,,,,j,1,0.417535,,7,0,7,0,1,,,,,,,,
,,,,,,,,,,,,,,,,,,,,,,,,,,sophie,1,2,2020-10-30_18h41.42.132,configural_featural,2020.2.4,MacIntel,60,1792,1120,,0,0.1622271,0,Stimuli/f24.png,Stimuli/f142.png,,,,j,1,0.38562,,8,0,8,0,1,,,,,,,,
,,,,,,,,,,,,,,,,,,,,,,,,,,sophie,1,2,2020-10-30_18h41.42.132,configural_featural,2020.2.4,MacIntel,60,1792,1120,,0,-0.1622271,1,Stimuli/f15.png,Stimuli/f15.png,,,,f,1,0.434085,,9,0,9,0,1,,,,,,,,
,,,,,,,,,,,,,,,,,,,,,,,,,,sophie,1,2,2020-10-30_18h41.42.132,configural_featural,2020.2.4,MacIntel,60,1792,1120,,0,0.1622271,1,Stimuli/f142.png,Stimuli/f142.png,,,,f,1,0.798605,,10,0,10,0,1,,,,,,,,
,,,,,,,,,,,,,,,,,,,,,,,,,,sophie,1,2,2020-10-30_18h41.42.132,configural_featural,2020.2.4,MacIntel,60,1792,1120,,0,0.1622271,0,Stimuli/f131.png,Stimuli/f24.png,,,,j,1,0.354635,,11,0,11,0,1,,,,,,,,
,,,,,,,,,,,,,,,,,,,,,,,,,,sophie,1,2,2020-10-30_18h41.42.132,configural_featural,2020.2.4,MacIntel,60,1792,1120,,1,0.1622271,0,Stimuli/f24.png,Stimuli/f15.png,,,,j,1,0.47423,,12,0,12,0,1,,,,,,,,
,,,,,,,,,,,,,,,,,,,,,,,,,,sophie,1,2,2020-10-30_18h41.42.132,configural_featural,2020.2.4,MacIntel,60,1792,1120,,0,0.1622271,1,Stimuli/f24.png,Stimuli/f24.png,,,,j,0,0.332775,,13,0,13,0,1,,,,,,,,
,,,,,,,,,,,,,,,,,,,,,,,,,,sophie,1,2,2020-10-30_18h41.42.132,configural_featural,2020.2.4,MacIntel,60,1792,1120,,0,-0.1622271,0,Stimuli/f15.png,Stimuli/f24.png,,,,j,1,0.448955,,14,0,14,0,1,,,,,,,,
,,,,,,,,,,,,,,,,,,,,,,,,,,sophie,1,2,2020-10-30_18h41.42.132,configural_featural,2020.2.4,MacIntel,60,1792,1120,,0,0.1622271,1,Stimuli/f131.png,Stimuli/f131.png,,,,j,0,1.084885,,15,0,15,0,1,,,,,,,,
,,,,,,,,,,,,,,,,,,,,,,,,,,sophie,1,2,2020-10-30_18h41.42.132,configural_featural,2020.2.4,MacIntel,60,1792,1120,,0,0.1622271,0,Stimuli/f131.png,Stimuli/f142.png,,,,j,1,0.43076,,16,0,16,0,1,,,,,,,,
,,,,,,,,,,,,,,,,,,,,,,,,,,sophie,1,2,2020-10-30_18h41.42.132,configural_featural,2020.2.4,MacIntel,60,1792,1120,,0,0.1622271,1,Stimuli/f15.png,Stimuli/f15.png,,,,f,1,0.529895,,17,0,17,0,1,,,,,,,,
,,,,,,,,,,,,,,,,,,,,,,,,,,sophie,1,2,2020-10-30_18h41.42.132,configural_featural,2020.2.4,MacIntel,60,1792,1120,,0,-0.1622271,1,Stimuli/f142.png,Stimuli/f142.png,,,,f,1,0.449175,,18,0,18,0,1,,,,,,,,
,,,,,,,,,,,,,,,,,,,,,,,,,,sophie,1,2,2020-10-30_18h41.42.132,configural_featural,2020.2.4,MacIntel,60,1792,1120,,0,-0.1622271,1,Stimuli/f24.png,Stimuli/f24.png,,,,f,1,0.633955,,19,0,19,0,1,,,,,,,,
,,,,,,,,,,,,,,,,,,,,,,,,,,sophie,1,2,2020-10-30_18h41.42.132,configural_featural,2020.2.4,MacIntel,60,1792,1120,,0,0.1622271,1,Stimuli/f24.png,Stimuli/f24.png,,,,f,1,0.316045,,20,0,20,0,1,,,,,,,,
,,,,,,,,,,,,,,,,,,,,,,,,,,sophie,1,2,2020-10-30_18h41.42.132,configural_featural,2020.2.4,MacIntel,60,1792,1120,,0,0.1622271,0,Stimuli/f15.png,Stimuli/f142.png,,,,j,1,0.40446,,21,0,21,0,1,,,,,,,,
,,,,,,,,,,,,,,,,,,,,,,,,,,sophie,1,2,2020-10-30_18h41.42.132,configural_featural,2020.2.4,MacIntel,60,1792,1120,,0,0.1622271,0,Stimuli/f131.png,Stimuli/f15.png,,,,j,1,0.59875,,22,0,22,0,1,,,,,,,,
,,,,,,,,,,,,,,,,,,,,,,,,,,sophie,1,2,2020-10-30_18h41.42.132,configural_featural,2020.2.4,MacIntel,60,1792,1120,,1,0.1622271,0,Stimuli/f15.png,Stimuli/f131.png,,,,j,1,0.40487,,23,0,23,0,1,,,,,,,,
,,,,,,,,,,,,,,,,,,,,,,,,,,sophie,1,2,2020-10-30_18h41.42.132,configural_featural,2020.2.4,MacIntel,60,1792,1120,,0,-0.1622271,1,Stimuli/f131.png,Stimuli/f131.png,,,,f,1,0.43184,,24,0,24,0,1,,,,,,,,
,,,,,,,,,,,,,,,,,,,,,,,,,,sophie,1,2,2020-10-30_18h41.42.132,configural_featural,2020.2.4,MacIntel,60,1792,1120,,0,0.1622271,1,Stimuli/f142.png,Stimuli/f142.png,,,,f,1,0.518335,,25,0,25,0,1,,,,,,,,
,,,,,,,,,,,,,,,,,,,,,,,,,,sophie,1,2,2020-10-30_18h41.42.132,configural_featural,2020.2.4,MacIntel,60,1792,1120,,0,-0.1622271,0,Stimuli/f24.png,Stimuli/f15.png,,,,j,1,0.386815,,26,0,26,0,1,,,,,,,,
,,,,,,,,,,,,,,,,,,,,,,,,,,sophie,1,2,2020-10-30_18h41.42.132,configural_featural,2020.2.4,MacIntel,60,1792,1120,,0,-0.1622271,0,Stimuli/f142.png,Stimuli/f15.png,,,,j,1,0.981075,,27,0,27,0,1,,,,,,,,
,,,,,,,,,,,,,,,,,,,,,,,,,,sophie,1,2,2020-10-30_18h41.42.132,configural_featural,2020.2.4,MacIntel,60,1792,1120,,0,-0.1622271,0,Stimuli/f24.png,Stimuli/f142.png,,,,j,1,0.401535,,28,0,28,0,1,,,,,,,,
,,,,,,,,,,,,,,,,,,,,,,,,,,sophie,1,2,2020-10-30_18h41.42.132,configural_featural,2020.2.4,MacIntel,60,1792,1120,,0,0.1622271,1,Stimuli/f131.png,Stimuli/f131.png,,,,f,1,0.471145,,29,0,29,0,1,,,,,,,,
,,,,,,,,,,,,,,,,,,,,,,,,,,sophie,1,2,2020-10-30_18h41.42.132,configural_featural,2020.2.4,MacIntel,60,1792,1120,,0,0.1622271,1,Stimuli/f15.png,Stimuli/f15.png,,,,f,1,0.314995,,30,0,30,0,1,,,,,,,,
,,,,,,,,,,,,,,,,,,,,,,,,,,sophie,1,2,2020-10-30_18h41.42.132,configural_featural,2020.2.4,MacIntel,60,1792,1120,,0,-0.1622271,1,Stimuli/f15.png,Stimuli/f15.png,,,,f,1,0.450335,,31,0,31,0,1,,,,,,,,
,,,,,,,,,,,,,,,,,,,,,,,,,,sophie,1,2,2020-10-30_18h41.42.132,configural_featural,2020.2.4,MacIntel,60,1792,1120,,0,-0.1622271,0,Stimuli/f142.png,Stimuli/f131.png,,,,j,1,0.38445,,32,0,32,0,1,,,,,,,,
,,,,,,,,,,,,,,,,,,,,,,,,,,sophie,1,2,2020-10-30_18h41.42.132,configural_featural,2020.2.4,MacIntel,60,1792,1120,,0,0.1622271,0,Stimuli/f142.png,Stimuli/f24.png,,,,j,1,0.364655,,33,0,33,0,1,,,,,,,,
,,,,,,,,,,,,,,,,,,,,,,,,,,sophie,1,2,2020-10-30_18h41.42.132,configural_featural,2020.2.4,MacIntel,60,1792,1120,,0,0.1622271,0,Stimuli/f15.png,Stimuli/f24.png,,,,j,1,0.47017,,34,0,34,0,1,,,,,,,,
,,,,,,,,,,,,,,,,,,,,,,,,,,sophie,1,2,2020-10-30_18h41.42.132,configural_featural,2020.2.4,MacIntel,60,1792,1120,,0,-0.1622271,1,Stimuli/f15.png,Stimuli/f15.png,,,,f,1,0.504675,,35,0,35,0,1,,,,,,,,
,,,,,,,,,,,,,,,,,,,,,,,,,,sophie,1,2,2020-10-30_18h41.42.132,configural_featural,2020.2.4,MacIntel,60,1792,1120,,0,-0.1622271,1,Stimuli/f131.png,Stimuli/f131.png,,,,f,1,0.28096,,36,0,36,0,1,,,,,,,,
,,,,,,,,,,,,,,,,,,,,,,,,,,sophie,1,2,2020-10-30_18h41.42.132,configural_featural,2020.2.4,MacIntel,60,1792,1120,,0,-0.1622271,0,Stimuli/f142.png,Stimuli/f24.png,,,,j,1,0.49983,,37,0,37,0,1,,,,,,,,
,,,,,,,,,,,,,,,,,,,,,,,,,,sophie,1,2,2020-10-30_18h41.42.132,configural_featural,2020.2.4,MacIntel,60,1792,1120,,0,-0.1622271,0,Stimuli/f131.png,Stimuli/f24.png,,,,j,1,0.536605,,38,0,38,0,1,,,,,,,,
,,,,,,,,,,,,,,,,,,,,,,,,,,sophie,1,2,2020-10-30_18h41.42.132,configural_featural,2020.2.4,MacIntel,60,1792,1120,,0,-0.1622271,1,Stimuli/f142.png,Stimuli/f142.png,,,,f,1,0.398025,,39,0,39,0,1,,,,,,,,
,,,,,,,,,,,,,,,,,,,,,,,,,,sophie,1,2,2020-10-30_18h41.42.132,configural_featural,2020.2.4,MacIntel,60,1792,1120,,0,0.1622271,1,Stimuli/f131.png,Stimuli/f131.png,,,,f,1,0.452665,,40,0,40,0,1,,,,,,,,
,,,,,,,,,,,,,,,,,,,,,,,,,,sophie,1,2,2020-10-30_18h41.42.132,configural_featural,2020.2.4,MacIntel,60,1792,1120,,0,0.1622271,0,Stimuli/f142.png,Stimuli/f131.png,,,,f,0,0.55069,,41,0,41,0,1,,,,,,,,
,,,,,,,,,,,,,,,,,,,,,,,,,,sophie,1,2,2020-10-30_18h41.42.132,configural_featural,2020.2.4,MacIntel,60,1792,1120,,1,0.1622271,1,Stimuli/f142.png,Stimuli/f142.png,,,,f,1,0.42329,,42,0,42,0,1,,,,,,,,
,,,,,,,,,,,,,,,,,,,,,,,,,,sophie,1,2,2020-10-30_18h41.42.132,configural_featural,2020.2.4,MacIntel,60,1792,1120,,1,-0.1622271,0,Stimuli/f15.png,Stimuli/f131.png,,,,j,1,0.38993,,43,0,43,0,1,,,,,,,,
,,,,,,,,,,,,,,,,,,,,,,,,,,sophie,1,2,2020-10-30_18h41.42.132,configural_featural,2020.2.4,MacIntel,60,1792,1120,,0,-0.1622271,1,Stimuli/f24.png,Stimuli/f24.png,,,,j,0,0.702435,,44,0,44,0,1,,,,,,,,
,,,,,,,,,,,,,,,,,,,,,,,,,,sophie,1,2,2020-10-30_18h41.42.132,configural_featural,2020.2.4,MacIntel,60,1792,1120,,1,0.1622271,1,Stimuli/f24.png,Stimuli/f24.png,,,,j,0,0.50077,,45,0,45,0,1,,,,,,,,
,,,,,,,,,,,,,,,,,,,,,,,,,,sophie,1,2,2020-10-30_18h41.42.132,configural_featural,2020.2.4,MacIntel,60,1792,1120,,0,-0.1622271,0,Stimuli/f24.png,Stimuli/f131.png,,,,j,1,0.482565,,46,0,46,0,1,,,,,,,,
,,,,,,,,,,,,,,,,,,,,,,,,,,sophie,1,2,2020-10-30_18h41.42.132,configural_featural,2020.2.4,MacIntel,60,1792,1120,,0,-0.1622271,0,Stimuli/f15.png,Stimuli/f142.png,,,,j,1,0.38839,,47,0,47,0,1,,,,,,,,
,,,,,,,,,,,,,,,,,,,,,,,,,,sophie,1,2,2020-10-30_18h41.42.132,configural_featural,2020.2.4,MacIntel,60,1792,1120,,,,,,,,,,,,,,,,,,,,0,2,2,2,1,feat_face,Designs/instructions_face_1234.png
,,,,,,,,,,,,,,,,,,,,,,,,,,sophie,1,2,2020-10-30_18h41.42.132,configural_featural,2020.2.4,MacIntel,60,1792,1120,,0,-0.1622271,1,Stimuli/H8sim0.png,Stimuli/H8sim0.png,,,,f,1,1.064365,,0,0,0,0,1,,,,,,,,
,,,,,,,,,,,,,,,,,,,,,,,,,,sophie,1,2,2020-10-30_18h41.42.132,configural_featural,2020.2.4,MacIntel,60,1792,1120,,0,-0.1622271,1,Stimuli/H6sim0.png,Stimuli/H6sim0.png,,,,f,1,0.614725,,1,0,1,0,1,,,,,,,,
,,,,,,,,,,,,,,,,,,,,,,,,,,sophie,1,2,2020-10-30_18h41.42.132,configural_featural,2020.2.4,MacIntel,60,1792,1120,,0,0.1622271,0,Stimuli/H8sim0.png,Stimuli/H6sim0.png,,,,f,0,0.448025,,2,0,2,0,1,,,,,,,,
,,,,,,,,,,,,,,,,,,,,,,,,,,sophie,1,2,2020-10-30_18h41.42.132,configural_featural,2020.2.4,MacIntel,60,1792,1120,,0,-0.1622271,0,Stimuli/H5sim0.png,Stimuli/H8sim0.png,,,,j,1,0.53218,,3,0,3,0,1,,,,,,,,
,,,,,,,,,,,,,,,,,,,,,,,,,,sophie,1,2,2020-10-30_18h41.42.132,configural_featural,2020.2.4,MacIntel,60,1792,1120,,0,0.1622271,0,Stimuli/H6sim0.png,Stimuli/H5sim0.png,,,,j,1,0.401235,,4,0,4,0,1,,,,,,,,
,,,,,,,,,,,,,,,,,,,,,,,,,,sophie,1,2,2020-10-30_18h41.42.132,configural_featural,2020.2.4,MacIntel,60,1792,1120,,1,0.1622271,1,Stimuli/H8sim0.png,Stimuli/H8sim0.png,,,,j,0,0.654575,space,5,0,5,0,1,0.008265,,,,,,,
,,,,,,,,,,,,,,,,,,,,,,,,,,sophie,1,2,2020-10-30_18h41.42.132,configural_featural,2020.2.4,MacIntel,60,1792,1120,,0,0.1622271,1,Stimuli/H5sim0.png,Stimuli/H5sim0.png,,,,f,1,0.49796,,6,0,6,0,1,,,,,,,,
,,,,,,,,,,,,,,,,,,,,,,,,,,sophie,1,2,2020-10-30_18h41.42.132,configural_featural,2020.2.4,MacIntel,60,1792,1120,,0,-0.1622271,1,Stimuli/H5sim0.png,Stimuli/H5sim0.png,,,,f,1,0.40131,,7,0,7,0,1,,,,,,,,
,,,,,,,,,,,,,,,,,,,,,,,,,,sophie,1,2,2020-10-30_18h41.42.132,configural_featural,2020.2.4,MacIntel,60,1792,1120,,1,-0.1622271,0,Stimuli/H6sim0.png,Stimuli/H8sim0.png,,,,j,1,0.44734,,8,0,8,0,1,,,,,,,,
,,,,,,,,,,,,,,,,,,,,,,,,,,sophie,1,2,2020-10-30_18h41.42.132,configural_featural,2020.2.4,MacIntel,60,1792,1120,,0,-0.1622271,0,Stimuli/H8sim0.png,Stimuli/H6sim0.png,,,,j,1,0.73279,,9,0,9,0,1,,,,,,,,
,,,,,,,,,,,,,,,,,,,,,,,,,,sophie,1,2,2020-10-30_18h41.42.132,configural_featural,2020.2.4,MacIntel,60,1792,1120,,0,0.1622271,0,Stimuli/H6sim0.png,Stimuli/H7sim0.png,,,,j,1,0.316205,,10,0,10,0,1,,,,,,,,
,,,,,,,,,,,,,,,,,,,,,,,,,,sophie,1,2,2020-10-30_18h41.42.132,configural_featural,2020.2.4,MacIntel,60,1792,1120,,0,0.1622271,1,Stimuli/H6sim0.png,Stimuli/H6sim0.png,,,,j,0,0.33125,,11,0,11,0,1,,,,,,,,
,,,,,,,,,,,,,,,,,,,,,,,,,,sophie,1,2,2020-10-30_18h41.42.132,configural_featural,2020.2.4,MacIntel,60,1792,1120,,0,0.1622271,1,Stimuli/H7sim0.png,Stimuli/H7sim0.png,,,,j,0,0.320915,,12,0,12,0,1,,,,,,,,
,,,,,,,,,,,,,,,,,,,,,,,,,,sophie,1,2,2020-10-30_18h41.42.132,configural_featural,2020.2.4,MacIntel,60,1792,1120,,0,-0.1622271,0,Stimuli/H8sim0.png,Stimuli/H5sim0.png,,,,j,1,0.797595,,13,0,13,0,1,,,,,,,,
,,,,,,,,,,,,,,,,,,,,,,,,,,sophie,1,2,2020-10-30_18h41.42.132,configural_featural,2020.2.4,MacIntel,60,1792,1120,,0,-0.1622271,0,Stimuli/H5sim0.png,Stimuli/H7sim0.png,,,,j,1,0.45157,,14,0,14,0,1,,,,,,,,
,,,,,,,,,,,,,,,,,,,,,,,,,,sophie,1,2,2020-10-30_18h41.42.132,configural_featural,2020.2.4,MacIntel,60,1792,1120,,0,0.1622271,1,Stimuli/H8sim0.png,Stimuli/H8sim0.png,,,,f,1,0.50023,,15,0,15,0,1,,,,,,,,
,,,,,,,,,,,,,,,,,,,,,,,,,,sophie,1,2,2020-10-30_18h41.42.132,configural_featural,2020.2.4,MacIntel,60,1792,1120,,0,0.1622271,1,Stimuli/H7sim0.png,Stimuli/H7sim0.png,,,,f,1,0.29796,,16,0,16,0,1,,,,,,,,
,,,,,,,,,,,,,,,,,,,,,,,,,,sophie,1,2,2020-10-30_18h41.42.132,configural_featural,2020.2.4,MacIntel,60,1792,1120,,0,-0.1622271,0,Stimuli/H7sim0.png,Stimuli/H6sim0.png,,,,j,1,0.315115,,17,0,17,0,1,,,,,,,,
,,,,,,,,,,,,,,,,,,,,,,,,,,sophie,1,2,2020-10-30_18h41.42.132,configural_featural,2020.2.4,MacIntel,60,1792,1120,,0,0.1622271,0,Stimuli/H8sim0.png,Stimuli/H7sim0.png,,,,j,1,0.332425,,18,0,18,0,1,,,,,,,,
,,,,,,,,,,,,,,,,,,,,,,,,,,sophie,1,2,2020-10-30_18h41.42.132,configural_featural,2020.2.4,MacIntel,60,1792,1120,,0,-0.1622271,1,Stimuli/H7sim0.png,Stimuli/H7sim0.png,,,,f,1,0.20402,,19,0,19,0,1,,,,,,,,
,,,,,,,,,,,,,,,,,,,,,,,,,,sophie,1,2,2020-10-30_18h41.42.132,configural_featural,2020.2.4,MacIntel,60,1792,1120,,0,-0.1622271,0,Stimuli/H5sim0.png,Stimuli/H6sim0.png,,,,j,1,0.85795,,20,0,20,0,1,,,,,,,,
,,,,,,,,,,,,,,,,,,,,,,,,,,sophie,1,2,2020-10-30_18h41.42.132,configural_featural,2020.2.4,MacIntel,60,1792,1120,,0,0.1622271,0,Stimuli/H7sim0.png,Stimuli/H8sim0.png,,,,j,1,0.29874,,21,0,21,0,1,,,,,,,,
,,,,,,,,,,,,,,,,,,,,,,,,,,sophie,1,2,2020-10-30_18h41.42.132,configural_featural,2020.2.4,MacIntel,60,1792,1120,,0,0.1622271,1,Stimuli/H5sim0.png,Stimuli/H5sim0.png,,,,f,1,0.49777,,22,0,22,0,1,,,,,,,,
,,,,,,,,,,,,,,,,,,,,,,,,,,sophie,1,2,2020-10-30_18h41.42.132,configural_featural,2020.2.4,MacIntel,60,1792,1120,,0,0.1622271,1,Stimuli/H6sim0.png,Stimuli/H6sim0.png,,,,f,1,0.49784,,23,0,23,0,1,,,,,,,,
,,,,,,,,,,,,,,,,,,,,,,,,,,sophie,1,2,2020-10-30_18h41.42.132,configural_featural,2020.2.4,MacIntel,60,1792,1120,,0,0.1622271,1,Stimuli/H6sim0.png,Stimuli/H6sim0.png,,,,f,1,0.45038,,24,0,24,0,1,,,,,,,,
,,,,,,,,,,,,,,,,,,,,,,,,,,sophie,1,2,2020-10-30_18h41.42.132,configural_featural,2020.2.4,MacIntel,60,1792,1120,,0,0.1622271,1,Stimuli/H8sim0.png,Stimuli/H8sim0.png,,,,f,1,0.39797,,25,0,25,0,1,,,,,,,,
,,,,,,,,,,,,,,,,,,,,,,,,,,sophie,1,2,2020-10-30_18h41.42.132,configural_featural,2020.2.4,MacIntel,60,1792,1120,,0,-0.1622271,0,Stimuli/H6sim0.png,Stimuli/H5sim0.png,,,,j,1,0.431565,,26,0,26,0,1,,,,,,,,
,,,,,,,,,,,,,,,,,,,,,,,,,,sophie,1,2,2020-10-30_18h41.42.132,configural_featural,2020.2.4,MacIntel,60,1792,1120,,0,-0.1622271,0,Stimuli/H7sim0.png,Stimuli/H5sim0.png,,,,j,1,0.323595,,27,0,27,0,1,,,,,,,,
,,,,,,,,,,,,,,,,,,,,,,,,,,sophie,1,2,2020-10-30_18h41.42.132,configural_featural,2020.2.4,MacIntel,60,1792,1120,,0,-0.1622271,1,Stimuli/H6sim0.png,Stimuli/H6sim0.png,,,,f,1,0.556995,,28,0,28,0,1,,,,,,,,
,,,,,,,,,,,,,,,,,,,,,,,,,,sophie,1,2,2020-10-30_18h41.42.132,configural_featural,2020.2.4,MacIntel,60,1792,1120,,0,0.1622271,0,Stimuli/H8sim0.png,Stimuli/H5sim0.png,,,,j,1,0.48132,,29,0,29,0,1,,,,,,,,
,,,,,,,,,,,,,,,,,,,,,,,,,,sophie,1,2,2020-10-30_18h41.42.132,configural_featural,2020.2.4,MacIntel,60,1792,1120,,0,-0.1622271,1,Stimuli/H5sim0.png,Stimuli/H5sim0.png,,,,f,1,0.44892,,30,0,30,0,1,,,,,,,,
,,,,,,,,,,,,,,,,,,,,,,,,,,sophie,1,2,2020-10-30_18h41.42.132,configural_featural,2020.2.4,MacIntel,60,1792,1120,,0,0.1622271,0,Stimuli/H5sim0.png,Stimuli/H6sim0.png,,,,j,1,0.616105,,31,0,31,0,1,,,,,,,,
,,,,,,,,,,,,,,,,,,,,,,,,,,sophie,1,2,2020-10-30_18h41.42.132,configural_featural,2020.2.4,MacIntel,60,1792,1120,,0,-0.1622271,0,Stimuli/H8sim0.png,Stimuli/H7sim0.png,,,,j,1,0.331925,,32,0,32,0,1,,,,,,,,
,,,,,,,,,,,,,,,,,,,,,,,,,,sophie,1,2,2020-10-30_18h41.42.132,configural_featural,2020.2.4,MacIntel,60,1792,1120,,0,0.1622271,0,Stimuli/H6sim0.png,Stimuli/H8sim0.png,,,,f,0,0.44859,,33,0,33,0,1,,,,,,,,
,,,,,,,,,,,,,,,,,,,,,,,,,,sophie,1,2,2020-10-30_18h41.42.132,configural_featural,2020.2.4,MacIntel,60,1792,1120,,1,0.1622271,1,Stimuli/H5sim0.png,Stimuli/H5sim0.png,,,,f,1,0.33326,,34,0,34,0,1,,,,,,,,
,,,,,,,,,,,,,,,,,,,,,,,,,,sophie,1,2,2020-10-30_18h41.42.132,configural_featural,2020.2.4,MacIntel,60,1792,1120,,0,-0.1622271,1,Stimuli/H7sim0.png,Stimuli/H7sim0.png,,,,f,1,0.669185,,35,0,35,0,1,,,,,,,,
,,,,,,,,,,,,,,,,,,,,,,,,,,sophie,1,2,2020-10-30_18h41.42.132,configural_featural,2020.2.4,MacIntel,60,1792,1120,,0,0.1622271,0,Stimuli/H7sim0.png,Stimuli/H5sim0.png,,,,j,1,0.317815,,36,0,36,0,1,,,,,,,,
,,,,,,,,,,,,,,,,,,,,,,,,,,sophie,1,2,2020-10-30_18h41.42.132,configural_featural,2020.2.4,MacIntel,60,1792,1120,,0,-0.1622271,1,Stimuli/H8sim0.png,Stimuli/H8sim0.png,,,,f,1,0.497485,,37,0,37,0,1,,,,,,,,
,,,,,,,,,,,,,,,,,,,,,,,,,,sophie,1,2,2020-10-30_18h41.42.132,configural_featural,2020.2.4,MacIntel,60,1792,1120,,1,-0.1622271,1,Stimuli/H8sim0.png,Stimuli/H8sim0.png,,,,f,1,0.45388,,38,0,38,0,1,,,,,,,,
,,,,,,,,,,,,,,,,,,,,,,,,,,sophie,1,2,2020-10-30_18h41.42.132,configural_featural,2020.2.4,MacIntel,60,1792,1120,,1,-0.1622271,0,Stimuli/H7sim0.png,Stimuli/H8sim0.png,,,,j,1,0.3146,,39,0,39,0,1,,,,,,,,
,,,,,,,,,,,,,,,,,,,,,,,,,,sophie,1,2,2020-10-30_18h41.42.132,configural_featural,2020.2.4,MacIntel,60,1792,1120,,1,-0.1622271,1,Stimuli/H7sim0.png,Stimuli/H7sim0.png,,,,f,1,0.367745,,40,0,40,0,1,,,,,,,,
,,,,,,,,,,,,,,,,,,,,,,,,,,sophie,1,2,2020-10-30_18h41.42.132,configural_featural,2020.2.4,MacIntel,60,1792,1120,,0,0.1622271,0,Stimuli/H7sim0.png,Stimuli/H6sim0.png,,,,j,1,0.43663,,41,0,41,0,1,,,,,,,,
,,,,,,,,,,,,,,,,,,,,,,,,,,sophie,1,2,2020-10-30_18h41.42.132,configural_featural,2020.2.4,MacIntel,60,1792,1120,,0,0.1622271,1,Stimuli/H7sim0.png,Stimuli/H7sim0.png,,,,f,1,0.365755,,42,0,42,0,1,,,,,,,,
,,,,,,,,,,,,,,,,,,,,,,,,,,sophie,1,2,2020-10-30_18h41.42.132,configural_featural,2020.2.4,MacIntel,60,1792,1120,,0,-0.1622271,1,Stimuli/H5sim0.png,Stimuli/H5sim0.png,,,,f,1,0.31531,,43,0,43,0,1,,,,,,,,
,,,,,,,,,,,,,,,,,,,,,,,,,,sophie,1,2,2020-10-30_18h41.42.132,configural_featural,2020.2.4,MacIntel,60,1792,1120,,0,0.1622271,0,Stimuli/H5sim0.png,Stimuli/H7sim0.png,,,,j,1,0.414935,,44,0,44,0,1,,,,,,,,
,,,,,,,,,,,,,,,,,,,,,,,,,,sophie,1,2,2020-10-30_18h41.42.132,configural_featural,2020.2.4,MacIntel,60,1792,1120,,0,0.1622271,0,Stimuli/H5sim0.png,Stimuli/H8sim0.png,,,,j,1,0.73132,,45,0,45,0,1,,,,,,,,
,,,,,,,,,,,,,,,,,,,,,,,,,,sophie,1,2,2020-10-30_18h41.42.132,configural_featural,2020.2.4,MacIntel,60,1792,1120,,0,-0.1622271,1,Stimuli/H6sim0.png,Stimuli/H6sim0.png,,,,f,1,0.54953,,46,0,46,0,1,,,,,,,,
,,,,,,,,,,,,,,,,,,,,,,,,,,sophie,1,2,2020-10-30_18h41.42.132,configural_featural,2020.2.4,MacIntel,60,1792,1120,,0,-0.1622271,0,Stimuli/H6sim0.png,Stimuli/H7sim0.png,,,,j,1,0.33603,,47,0,47,0,1,,,,,,,,
,,,,,,,,,,,,,,,,,,,,,,,,,,sophie,1,2,2020-10-30_18h41.42.132,configural_featural,2020.2.4,MacIntel,60,1792,1120,,,,,,,,,,,,,,,,,,,,0,3,3,3,1,feat_haus,Designs/instructions_haus_1234.png
