Block_type,instruction_text,pTrials.thisRepN,pTrials.thisTrialN,pTrials.thisN,pTrials.thisIndex,blocks.thisRepN,blocks.thisTrialN,blocks.thisN,blocks.thisIndex,trials.thisRepN,trials.thisTrialN,trials.thisN,trials.thisIndex,X Scale,Y Scale,image_6.started,image_6.stopped,text_8.started,text_8.stopped,image_7.started,image_7.stopped,prac_instr2.started,prac_instr2.stopped,prePrac1Resp.keys,prePrac1Resp.corr,prePrac1Resp.rt,prePrac1Resp.started,prePrac1Resp.stopped,image_8.started,image_8.stopped,text_9.started,text_9.stopped,image_9.started,image_9.stopped,prac_instr4.started,prac_instr4.stopped,key_resp_10.keys,key_resp_10.corr,key_resp_10.rt,key_resp_13.keys,key_resp_13.corr,key_resp_13.rt,key_resp_13.started,key_resp_13.stopped,pfix_switches,Pside,ptrial_type1S0D,ptarget,pprobe,image.started,image.stopped,text_6.started,text_6.stopped,image_2.started,image_2.stopped,text_7.started,text_7.stopped,prac_resp.keys,prac_resp.corr,prac_resp.rt,prac_resp.started,prac_resp.stopped,prac_fix_resp.keys,prac_fix_resp.corr,prac_fix_resp.started,prac_fix_resp.stopped,image_3.started,image_3.stopped,feedback_msg.started,feedback_msg.stopped,prac_fix_resp.rt,fix_switches,side,trial_type1S0D,target,probe,key_resp_3.keys,key_resp_4.keys,key_resp_5.keys,key_resp.keys,key_resp.corr,key_resp.rt,key_resp_6.keys,key_resp_6.started,key_resp_6.stopped,key_resp_6.rt,key_resp_5.rt,allDone.started,allDone.stopped,participant,design,position,date,expName,psychopyVersion,frameRate,
,,,,,,,,,,,,,,0.05,0.05,52.23264547693543,52.43710867303889,52.23264547693543,None,52.702213960001245,None,53.36868666904047,None,j,1,0.9199181570438668,53.36868666904047,None,,,,,,,,,,,,,,,,,,,,,,,,,,,,,,,,,,,,,,,,,,,,,,,,,,,,,,,,,,,,,,sophie,1,2,2020_Oct_30_1935,configural_featural,2020.2.4,None,
,,,,,,,,,,,,,,,,,,,,,,,,,,,,,55.75988591997884,55.97086477500852,55.75988591997884,None,56.218762872042134,None,56.402080807019956,None,space,1,1.724928573006764,,,,,,,,,,,,,,,,,,,,,,,,,,,,,,,,,,,,,,,,,,,,,,,,,,,sophie,1,2,2020_Oct_30_1935,configural_featural,2020.2.4,None,
,,,,,,,,,,,,,,,,,,,,,,,,,,,,,,,,,,,,,,,,f,1,0.5153054919792339,56.402080807019956,None,,,,,,,,,,,,,,,,,,,,,,,,,,,,,,,,,,,,,,,,,,,,,,sophie,1,2,2020_Oct_30_1935,configural_featural,2020.2.4,None,
,,0,0,0,0,,,,,,,,,,,,,,,,,,,,,,,,,,,,,,,,,,,,,,,,0,0.17295000000000002,1,Stimuli/nemo2.png,Stimuli/nemo1.jpg,69.165781604941,69.36892689403612,69.165781604941,None,69.4641487080371,69.669004854979,69.4641487080371,None,j,1,0.5479949089931324,69.63559489301406,None,None,1,69.63559489301406,None,73.63707711198367,None,73.63707711198367,None,,,,,,,,,,,,,,,,,,,,sophie,1,2,2020_Oct_30_1935,configural_featural,2020.2.4,None,
,,1,0,1,0,,,,,,,,,,,,,,,,,,,,,,,,,,,,,,,,,,,,,,,,0,0.17295000000000002,0,Stimuli/dory2.png,Stimuli/dory2.png,75.63573652599007,75.83554029103834,75.63573652599007,None,75.95405154803302,76.15244293096475,75.95405154803302,None,f,1,0.5550865361001343,76.1378164680209,None,None,1,76.1378164680209,None,80.1190809890395,None,80.1190809890395,None,,,,,,,,,,,,,,,,,,,,sophie,1,2,2020_Oct_30_1935,configural_featural,2020.2.4,None,
,,2,0,2,0,,,,,,,,,,,,,,,,,,,,,,,,,,,,,,,,,,,,,,,,0,0.17295000000000002,0,Stimuli/nemo2.png,Stimuli/nemo2.png,82.16640344902407,82.36912581103388,82.16640344902407,None,82.46502995304763,82.66915090603288,82.46502995304763,None,f,1,0.4611914389533922,82.63566248200368,None,None,1,82.63566248200368,None,86.63550060696434,None,86.63550060696434,None,,,,,,,,,,,,,,,,,,,,sophie,1,2,2020_Oct_30_1935,configural_featural,2020.2.4,None,
,,3,0,3,0,,,,,,,,,,,,,,,,,,,,,,,,,,,,,,,,,,,,,,,,0,0.17295000000000002,0,Stimuli/nemo2.png,Stimuli/nemo2.png,88.68151294894051,88.88544501003344,88.68151294894051,None,88.96477285795845,89.17104792303871,88.96477285795845,None,f,1,0.5362256730441004,89.13801853801124,None,None,1,89.13801853801124,None,93.1189695840003,None,93.1189695840003,None,,,,,,,,,,,,,,,,,,,,sophie,1,2,2020_Oct_30_1935,configural_featural,2020.2.4,None,
,,4,0,4,0,,,,,,,,,,,,,,,,,,,,,,,,,,,,,,,,,,,,,,,,0,0.17295000000000002,1,Stimuli/dory1.png,Stimuli/dory2.png,95.16616579098627,95.37099308602046,95.16616579098627,None,95.43582868494559,95.63582573994063,95.43582868494559,None,j,1,1.2716141060227528,95.60251965199132,99.60235262103379,None,1,95.60251965199132,99.60235262103379,99.6358420009492,None,99.6358420009492,None,,,,,,,,,,,,,,,,,,,,sophie,1,2,2020_Oct_30_1935,configural_featural,2020.2.4,None,
,,5,0,5,0,,,,,,,,,,,,,,,,,,,,,,,,,,,,,,,,,,,,,,,,1,0.17295000000000002,1,Stimuli/dory2.png,Stimuli/dory1.png,101.63787733495701,101.85269132303074,101.63787733495701,None,101.97725846001413,102.18797510000877,101.97725846001413,None,j,1,1.3147738330299035,102.15273053199053,None,space,1,102.15273053199053,None,106.11909213394392,None,106.11909213394392,None,1.017370203975588,,,,,,,,,,,,,,,,,,,sophie,1,2,2020_Oct_30_1935,configural_featural,2020.2.4,None,
,,6,0,6,0,,,,,,,,,,,,,,,,,,,,,,,,,,,,,,,,,,,,,,,,0,-0.17295000000000002,1,Stimuli/nemo1.jpg,Stimuli/nemo2.png,108.14414433797356,108.35272969899233,108.14414433797356,None,108.46576652303338,108.67117245204281,108.46576652303338,None,j,1,1.2794374319491908,108.63588610396255,None,None,1,108.63588610396255,None,112.61937363294419,None,112.61937363294419,None,,,,,,,,,,,,,,,,,,,,sophie,1,2,2020_Oct_30_1935,configural_featural,2020.2.4,None,
,,7,0,7,0,,,,,,,,,,,,,,,,,,,,,,,,,,,,,,,,,,,,,,,,1,-0.17295000000000002,1,Stimuli/dory1.png,Stimuli/dory2.png,114.66648840799462,114.86923278600443,114.66648840799462,None,114.93855002499186,115.15441884496249,114.93855002499186,None,j,1,1.0111493470612913,115.11942043097224,None,space,1,115.11942043097224,None,119.11950423603412,None,119.11950423603412,None,1.2656591839622706,,,,,,,,,,,,,,,,,,,sophie,1,2,2020_Oct_30_1935,configural_featural,2020.2.4,None,
,,8,0,8,0,,,,,,,,,,,,,,,,,,,,,,,,,,,,,,,,,,,,,,,,0,-0.17295000000000002,0,Stimuli/dory1.png,Stimuli/dory1.png,121.16628259804565,121.36932496493682,121.16628259804565,None,121.4665734389564,121.67168317094911,121.4665734389564,None,f,1,0.557413176051341,121.63609819498379,None,None,1,121.63609819498379,None,125.619242382003,None,125.619242382003,None,,,,,,,,,,,,,,,,,,,,sophie,1,2,2020_Oct_30_1935,configural_featural,2020.2.4,None,
,,9,0,9,0,,,,,,,,,,,,,,,,,,,,,,,,,,,,,,,,,,,,,,,,1,-0.17295000000000002,1,Stimuli/nemo1.jpg,Stimuli/nemo2.png,127.63551364501473,127.83617741195485,127.63551364501473,None,127.964063522988,128.1715630480321,127.964063522988,None,j,1,0.6735855320002884,128.1361273980001,None,None,0,128.1361273980001,None,132.13608767604455,None,132.13608767604455,None,,,,,,,,,,,,,,,,,,,,sophie,1,2,2020_Oct_30_1935,configural_featural,2020.2.4,None,
,,10,0,10,0,,,,,,,,,,,,,,,,,,,,,,,,,,,,,,,,,,,,,,,,0,-0.17295000000000002,0,Stimuli/dory2.png,Stimuli/dory2.png,134.13621606200468,134.3363146809861,134.13621606200468,None,134.43756876699626,134.636254483019,134.43756876699626,None,f,1,0.9307206179946661,134.62158722197637,None,None,1,134.62158722197637,None,138.61952291498892,None,138.61952291498892,None,,,,,,,,,,,,,,,,,,,,sophie,1,2,2020_Oct_30_1935,configural_featural,2020.2.4,None,
,,11,0,11,0,,,,,,,,,,,,,,,,,,,,,,,,,,,,,,,,,,,,,,,,0,-0.17295000000000002,0,Stimuli/nemo1.jpg,Stimuli/nemo1.jpg,140.64461233303882,140.85290462803096,140.64461233303882,None,140.9362267779652,141.13640802796,140.9362267779652,None,f,1,1.4043383660027757,141.12170863698702,None,None,1,141.12170863698702,None,145.1192504549399,None,145.1192504549399,None,,,,,,,,,,,,,,,,,,,,sophie,1,2,2020_Oct_30_1935,configural_featural,2020.2.4,None,
conf_face,Designs/instructions_face_1234.png,,,,,0,0,0,0,0,0,0,0,,,,,,,,,,,,,,,,,,,,,,,,,,,,,,,,,,,,,,,,,,,,,,,,,,,,,,,,,,,0,-0.17295000000000002,1.0,Stimuli/eimd.png,Stimuli/eimd.png,None,None,None,f,1,2.2688560439273715,None,177.80324595898855,None,,,,,sophie,1,2,2020_Oct_30_1935,configural_featural,2020.2.4,None,
conf_face,Designs/instructions_face_1234.png,,,,,0,0,0,0,1,0,1,0,,,,,,,,,,,,,,,,,,,,,,,,,,,,,,,,,,,,,,,,,,,,,,,,,,,,,,,,,,,0,-0.17295000000000002,0.0,Stimuli/eumu.png,Stimuli/eomu.png,None,None,None,f,0,0.3758646559435874,None,180.8220572680002,None,,,,,sophie,1,2,2020_Oct_30_1935,configural_featural,2020.2.4,None,
conf_face,Designs/instructions_face_1234.png,,,,,0,0,0,0,2,0,2,0,,,,,,,,,,,,,,,,,,,,,,,,,,,,,,,,,,,,,,,,,,,,,,,,,,,,,,,,,,,0,0.17295000000000002,1.0,Stimuli/eumu.png,Stimuli/eumu.png,None,None,None,j,0,0.65414669807069,None,181.91977904899977,None,,,,,sophie,1,2,2020_Oct_30_1935,configural_featural,2020.2.4,None,
conf_face,Designs/instructions_face_1234.png,,,,,0,0,0,0,3,0,3,0,,,,,,,,,,,,,,,,,,,,,,,,,,,,,,,,,,,,,,,,,,,,,,,,,,,,,,,,,,,0,-0.17295000000000002,1.0,Stimuli/eumu.png,Stimuli/eumu.png,None,None,None,f,1,0.5809547350509092,None,183.31981507793535,None,,,,,sophie,1,2,2020_Oct_30_1935,configural_featural,2020.2.4,None,
conf_face,Designs/instructions_face_1234.png,,,,,0,0,0,0,4,0,4,0,,,,,,,,,,,,,,,,,,,,,,,,,,,,,,,,,,,,,,,,,,,,,,,,,,,,,,,,,,,0,0.17295000000000002,0.0,Stimuli/eumu.png,Stimuli/eomu.png,None,None,None,j,1,0.6387568740174174,None,184.61955969093833,None,,,,,sophie,1,2,2020_Oct_30_1935,configural_featural,2020.2.4,None,
conf_face,Designs/instructions_face_1234.png,,,,,0,0,0,0,5,0,5,0,,,,,,,,,,,,,,,,,,,,,,,,,,,,,,,,,,,,,,,,,,,,,,,,,,,,,,,,,,,0,0.17295000000000002,0.0,Stimuli/edmd.png,Stimuli/eumu.png,None,None,None,j,1,0.4471197269158438,None,185.98656310199294,None,,,,,sophie,1,2,2020_Oct_30_1935,configural_featural,2020.2.4,None,
conf_face,Designs/instructions_face_1234.png,,,,,0,0,0,0,6,0,6,0,,,,,,,,,,,,,,,,,,,,,,,,,,,,,,,,,,,,,,,,,,,,,,,,,,,,,,,,,,,0,-0.17295000000000002,0.0,Stimuli/eimd.png,Stimuli/edmd.png,None,None,None,j,1,0.8100532330572605,None,187.15342460898682,None,,,,,sophie,1,2,2020_Oct_30_1935,configural_featural,2020.2.4,None,
conf_face,Designs/instructions_face_1234.png,,,,,0,0,0,0,7,0,7,0,,,,,,,,,,,,,,,,,,,,,,,,,,,,,,,,,,,,,,,,,,,,,,,,,,,,,,,,,,,0,-0.17295000000000002,0.0,Stimuli/eomu.png,Stimuli/edmd.png,None,None,None,j,1,0.3826221749186516,None,188.70296116394456,None,,,,,sophie,1,2,2020_Oct_30_1935,configural_featural,2020.2.4,None,
conf_face,Designs/instructions_face_1234.png,,,,,0,0,0,0,8,0,8,0,,,,,,,,,,,,,,,,,,,,,,,,,,,,,,,,,,,,,,,,,,,,,,,,,,,,,,,,,,,0,0.17295000000000002,1.0,Stimuli/eimd.png,Stimuli/eimd.png,None,None,None,f,1,0.3760699509875849,None,189.8030674889451,None,,,,,sophie,1,2,2020_Oct_30_1935,configural_featural,2020.2.4,None,
conf_face,Designs/instructions_face_1234.png,,,,,0,0,0,0,9,0,9,0,,,,,,,,,,,,,,,,,,,,,,,,,,,,,,,,,,,,,,,,,,,,,,,,,,,,,,,,,,,0,0.17295000000000002,1.0,Stimuli/edmd.png,Stimuli/edmd.png,None,None,None,f,1,0.34076446399558336,None,190.92213522701059,None,,,,,sophie,1,2,2020_Oct_30_1935,configural_featural,2020.2.4,None,
conf_face,Designs/instructions_face_1234.png,,,,,0,0,0,0,10,0,10,0,,,,,,,,,,,,,,,,,,,,,,,,,,,,,,,,,,,,,,,,,,,,,,,,,,,,,,,,,,,0,-0.17295000000000002,0.0,Stimuli/edmd.png,Stimuli/eumu.png,None,None,None,j,1,0.47909474500920624,None,191.9864275190048,None,,,,,sophie,1,2,2020_Oct_30_1935,configural_featural,2020.2.4,None,
conf_face,Designs/instructions_face_1234.png,,,,,0,0,0,0,11,0,11,0,,,,,,,,,,,,,,,,,,,,,,,,,,,,,,,,,,,,,,,,,,,,,,,,,,,,,,,,,,,0,-0.17295000000000002,1.0,Stimuli/edmd.png,Stimuli/edmd.png,None,None,None,f,1,0.2779167570406571,None,193.18917553895153,None,,,,,sophie,1,2,2020_Oct_30_1935,configural_featural,2020.2.4,None,
conf_face,Designs/instructions_face_1234.png,,,,,0,0,0,0,12,0,12,0,,,,,,,,,,,,,,,,,,,,,,,,,,,,,,,,,,,,,,,,,,,,,,,,,,,,,,,,,,,1,0.17295000000000002,0.0,Stimuli/edmd.png,Stimuli/eimd.png,None,None,None,f,0,0.8561986950226128,space,194.20317118195817,None,0.04614822706207633,,,,sophie,1,2,2020_Oct_30_1935,configural_featural,2020.2.4,None,
conf_face,Designs/instructions_face_1234.png,,,,,0,0,0,0,13,0,13,0,,,,,,,,,,,,,,,,,,,,,,,,,,,,,,,,,,,,,,,,,,,,,,,,,,,,,,,,,,,0,-0.17295000000000002,1.0,Stimuli/eomu.png,Stimuli/eomu.png,None,None,None,f,1,0.6679425809998065,None,195.78938596497755,None,,,,,sophie,1,2,2020_Oct_30_1935,configural_featural,2020.2.4,None,
conf_face,Designs/instructions_face_1234.png,,,,,0,0,0,0,14,0,14,0,,,,,,,,,,,,,,,,,,,,,,,,,,,,,,,,,,,,,,,,,,,,,,,,,,,,,,,,,,,0,0.17295000000000002,1.0,Stimuli/eomu.png,Stimuli/eomu.png,None,None,None,f,1,0.5077610589796677,None,197.18653237004764,None,,,,,sophie,1,2,2020_Oct_30_1935,configural_featural,2020.2.4,None,
conf_face,Designs/instructions_face_1234.png,,,,,0,0,0,0,15,0,15,0,,,,,,,,,,,,,,,,,,,,,,,,,,,,,,,,,,,,,,,,,,,,,,,,,,,,,,,,,,,0,0.17295000000000002,0.0,Stimuli/eimd.png,Stimuli/edmd.png,None,None,None,f,0,1.7112017219187692,None,198.42000840604305,None,,,,,sophie,1,2,2020_Oct_30_1935,configural_featural,2020.2.4,None,
conf_face,Designs/instructions_face_1234.png,,,,,0,0,0,0,16,0,16,0,,,,,,,,,,,,,,,,,,,,,,,,,,,,,,,,,,,,,,,,,,,,,,,,,,,,,,,,,,,0,-0.17295000000000002,1.0,Stimuli/eomu.png,Stimuli/eomu.png,None,None,None,f,1,1.0977092549437657,None,200.8533157960046,None,,,,,sophie,1,2,2020_Oct_30_1935,configural_featural,2020.2.4,None,
conf_face,Designs/instructions_face_1234.png,,,,,0,0,0,0,17,0,17,0,,,,,,,,,,,,,,,,,,,,,,,,,,,,,,,,,,,,,,,,,,,,,,,,,,,,,,,,,,,0,-0.17295000000000002,0.0,Stimuli/eumu.png,Stimuli/eimd.png,None,None,None,f,0,0.5404783189296722,None,202.67009467002936,None,,,,,sophie,1,2,2020_Oct_30_1935,configural_featural,2020.2.4,None,
conf_face,Designs/instructions_face_1234.png,,,,,0,0,0,0,18,0,18,0,,,,,,,,,,,,,,,,,,,,,,,,,,,,,,,,,,,,,,,,,,,,,,,,,,,,,,,,,,,1,-0.17295000000000002,0.0,Stimuli/eumu.png,Stimuli/edmd.png,None,None,None,j,1,0.4145000629359856,None,203.93675365799572,None,,,,,sophie,1,2,2020_Oct_30_1935,configural_featural,2020.2.4,None,
conf_face,Designs/instructions_face_1234.png,,,,,0,0,0,0,19,0,19,0,,,,,,,,,,,,,,,,,,,,,,,,,,,,,,,,,,,,,,,,,,,,,,,,,,,,,,,,,,,0,0.17295000000000002,1.0,Stimuli/eimd.png,Stimuli/eimd.png,None,None,None,j,0,0.4662255609873682,None,205.07007387897465,None,,,,,sophie,1,2,2020_Oct_30_1935,configural_featural,2020.2.4,None,
conf_face,Designs/instructions_face_1234.png,,,,,0,0,0,0,20,0,20,0,,,,,,,,,,,,,,,,,,,,,,,,,,,,,,,,,,,,,,,,,,,,,,,,,,,,,,,,,,,0,-0.17295000000000002,0.0,Stimuli/edmd.png,Stimuli/eomu.png,None,None,None,f,0,0.4721869110362604,None,206.25585947104264,None,,,,,sophie,1,2,2020_Oct_30_1935,configural_featural,2020.2.4,None,
conf_face,Designs/instructions_face_1234.png,,,,,0,0,0,0,21,0,21,0,,,,,,,,,,,,,,,,,,,,,,,,,,,,,,,,,,,,,,,,,,,,,,,,,,,,,,,,,,,0,-0.17295000000000002,1.0,Stimuli/eumu.png,Stimuli/eumu.png,None,None,None,f,1,0.4998762020841241,None,207.4533036199864,None,,,,,sophie,1,2,2020_Oct_30_1935,configural_featural,2020.2.4,None,
conf_face,Designs/instructions_face_1234.png,,,,,0,0,0,0,22,0,22,0,,,,,,,,,,,,,,,,,,,,,,,,,,,,,,,,,,,,,,,,,,,,,,,,,,,,,,,,,,,0,-0.17295000000000002,0.0,Stimuli/eomu.png,Stimuli/eumu.png,None,None,None,f,0,0.4570454520871863,None,208.67014013498556,None,,,,,sophie,1,2,2020_Oct_30_1935,configural_featural,2020.2.4,None,
conf_face,Designs/instructions_face_1234.png,,,,,0,0,0,0,23,0,23,0,,,,,,,,,,,,,,,,,,,,,,,,,,,,,,,,,,,,,,,,,,,,,,,,,,,,,,,,,,,0,0.17295000000000002,1.0,Stimuli/edmd.png,Stimuli/edmd.png,None,None,None,j,0,1.1509976970264688,None,209.8533355590189,None,,,,,sophie,1,2,2020_Oct_30_1935,configural_featural,2020.2.4,None,
conf_face,Designs/instructions_face_1234.png,,,,,0,0,0,0,24,0,24,0,,,,,,,,,,,,,,,,,,,,,,,,,,,,,,,,,,,,,,,,,,,,,,,,,,,,,,,,,,,0,0.17295000000000002,1.0,Stimuli/eomu.png,Stimuli/eomu.png,None,None,None,j,0,0.46973834303207695,None,211.75337124301586,None,,,,,sophie,1,2,2020_Oct_30_1935,configural_featural,2020.2.4,None,
conf_face,Designs/instructions_face_1234.png,,,,,0,0,0,0,25,0,25,0,,,,,,,,,,,,,,,,,,,,,,,,,,,,,,,,,,,,,,,,,,,,,,,,,,,,,,,,,,,0,-0.17295000000000002,1.0,Stimuli/eimd.png,Stimuli/eimd.png,None,None,None,f,1,0.6138442779192701,None,212.95335580804385,None,,,,,sophie,1,2,2020_Oct_30_1935,configural_featural,2020.2.4,None,
conf_face,Designs/instructions_face_1234.png,,,,,0,0,0,0,26,0,26,0,,,,,,,,,,,,,,,,,,,,,,,,,,,,,,,,,,,,,,,,,,,,,,,,,,,,,,,,,,,0,0.17295000000000002,1.0,Stimuli/eumu.png,Stimuli/eumu.png,None,None,None,f,1,0.49193078896496445,None,214.28871287603397,None,,,,,sophie,1,2,2020_Oct_30_1935,configural_featural,2020.2.4,None,
conf_face,Designs/instructions_face_1234.png,,,,,0,0,0,0,27,0,27,0,,,,,,,,,,,,,,,,,,,,,,,,,,,,,,,,,,,,,,,,,,,,,,,,,,,,,,,,,,,0,-0.17295000000000002,0.0,Stimuli/eimd.png,Stimuli/eomu.png,None,None,None,j,1,0.4464156390167773,None,215.50333650503308,None,,,,,sophie,1,2,2020_Oct_30_1935,configural_featural,2020.2.4,None,
conf_face,Designs/instructions_face_1234.png,,,,,0,0,0,0,28,0,28,0,,,,,,,,,,,,,,,,,,,,,,,,,,,,,,,,,,,,,,,,,,,,,,,,,,,,,,,,,,,0,0.17295000000000002,0.0,Stimuli/eimd.png,Stimuli/eumu.png,None,None,None,j,1,1.1795622110366821,None,216.6701038479805,None,,,,,sophie,1,2,2020_Oct_30_1935,configural_featural,2020.2.4,None,
conf_face,Designs/instructions_face_1234.png,,,,,0,0,0,0,29,0,29,0,,,,,,,,,,,,,,,,,,,,,,,,,,,,,,,,,,,,,,,,,,,,,,,,,,,,,,,,,,,0,0.17295000000000002,0.0,Stimuli/edmd.png,Stimuli/eomu.png,None,None,None,j,1,0.32742858002893627,None,218.5728038030211,None,,,,,sophie,1,2,2020_Oct_30_1935,configural_featural,2020.2.4,None,
conf_face,Designs/instructions_face_1234.png,,,,,0,0,0,0,30,0,30,0,,,,,,,,,,,,,,,,,,,,,,,,,,,,,,,,,,,,,,,,,,,,,,,,,,,,,,,,,,,0,-0.17295000000000002,0.0,Stimuli/eomu.png,Stimuli/eimd.png,None,None,None,j,1,0.5178346190368757,None,219.62020520097576,None,,,,,sophie,1,2,2020_Oct_30_1935,configural_featural,2020.2.4,None,
conf_face,Designs/instructions_face_1234.png,,,,,0,0,0,0,31,0,31,0,,,,,,,,,,,,,,,,,,,,,,,,,,,,,,,,,,,,,,,,,,,,,,,,,,,,,,,,,,,1,0.17295000000000002,0.0,Stimuli/eomu.png,Stimuli/edmd.png,None,None,None,j,1,0.38981235306710005,None,220.87033810804132,None,,,,,sophie,1,2,2020_Oct_30_1935,configural_featural,2020.2.4,None,
conf_face,Designs/instructions_face_1234.png,,,,,0,0,0,0,32,0,32,0,,,,,,,,,,,,,,,,,,,,,,,,,,,,,,,,,,,,,,,,,,,,,,,,,,,,,,,,,,,0,0.17295000000000002,0.0,Stimuli/eomu.png,Stimuli/eumu.png,None,None,None,f,0,0.31913909898139536,None,221.98608913295902,None,,,,,sophie,1,2,2020_Oct_30_1935,configural_featural,2020.2.4,None,
conf_face,Designs/instructions_face_1234.png,,,,,0,0,0,0,33,0,33,0,,,,,,,,,,,,,,,,,,,,,,,,,,,,,,,,,,,,,,,,,,,,,,,,,,,,,,,,,,,1,0.17295000000000002,1.0,Stimuli/eomu.png,Stimuli/eomu.png,None,None,None,f,1,0.7856253139907494,None,223.03946428198833,None,,,,,sophie,1,2,2020_Oct_30_1935,configural_featural,2020.2.4,None,
conf_face,Designs/instructions_face_1234.png,,,,,0,0,0,0,34,0,34,0,,,,,,,,,,,,,,,,,,,,,,,,,,,,,,,,,,,,,,,,,,,,,,,,,,,,,,,,,,,0,-0.17295000000000002,1.0,Stimuli/edmd.png,Stimuli/edmd.png,None,None,None,j,0,0.5402248980244622,None,224.5532529830234,None,,,,,sophie,1,2,2020_Oct_30_1935,configural_featural,2020.2.4,None,
conf_face,Designs/instructions_face_1234.png,,,,,0,0,0,0,35,0,35,0,,,,,,,,,,,,,,,,,,,,,,,,,,,,,,,,,,,,,,,,,,,,,,,,,,,,,,,,,,,0,-0.17295000000000002,1.0,Stimuli/eomu.png,Stimuli/eomu.png,None,None,None,j,0,0.49638018803671,None,225.82008047204,None,,,,,sophie,1,2,2020_Oct_30_1935,configural_featural,2020.2.4,None,
conf_face,Designs/instructions_face_1234.png,,,,,0,0,0,0,36,0,36,0,,,,,,,,,,,,,,,,,,,,,,,,,,,,,,,,,,,,,,,,,,,,,,,,,,,,,,,,,,,1,-0.17295000000000002,1.0,Stimuli/edmd.png,Stimuli/edmd.png,None,None,None,j,0,0.4806668079691008,None,227.03678244701587,None,,,,,sophie,1,2,2020_Oct_30_1935,configural_featural,2020.2.4,None,
conf_face,Designs/instructions_face_1234.png,,,,,0,0,0,0,37,0,37,0,,,,,,,,,,,,,,,,,,,,,,,,,,,,,,,,,,,,,,,,,,,,,,,,,,,,,,,,,,,1,-0.17295000000000002,0.0,Stimuli/eimd.png,Stimuli/eumu.png,None,None,None,f,0,0.3499382039299235,None,228.23704676597845,None,,,,,sophie,1,2,2020_Oct_30_1935,configural_featural,2020.2.4,None,
conf_face,Designs/instructions_face_1234.png,,,,,0,0,0,0,38,0,38,0,,,,,,,,,,,,,,,,,,,,,,,,,,,,,,,,,,,,,,,,,,,,,,,,,,,,,,,,,,,0,0.17295000000000002,1.0,Stimuli/edmd.png,Stimuli/edmd.png,None,None,None,f,1,0.40819622902199626,None,229.3037248379551,None,,,,,sophie,1,2,2020_Oct_30_1935,configural_featural,2020.2.4,None,
conf_face,Designs/instructions_face_1234.png,,,,,0,0,0,0,39,0,39,0,,,,,,,,,,,,,,,,,,,,,,,,,,,,,,,,,,,,,,,,,,,,,,,,,,,,,,,,,,,0,-0.17295000000000002,0.0,Stimuli/edmd.png,Stimuli/eimd.png,None,None,None,j,1,1.7950789870228618,None,230.43699722294696,None,,,,,sophie,1,2,2020_Oct_30_1935,configural_featural,2020.2.4,None,
conf_face,Designs/instructions_face_1234.png,,,,,0,0,0,0,40,0,40,0,,,,,,,,,,,,,,,,,,,,,,,,,,,,,,,,,,,,,,,,,,,,,,,,,,,,,,,,,,,0,0.17295000000000002,1.0,Stimuli/eimd.png,Stimuli/eimd.png,None,None,None,f,1,0.7684018990257755,None,232.970380889019,None,,,,,sophie,1,2,2020_Oct_30_1935,configural_featural,2020.2.4,None,
conf_face,Designs/instructions_face_1234.png,,,,,0,0,0,0,41,0,41,0,,,,,,,,,,,,,,,,,,,,,,,,,,,,,,,,,,,,,,,,,,,,,,,,,,,,,,,,,,,0,0.17295000000000002,0.0,Stimuli/eumu.png,Stimuli/edmd.png,None,None,None,f,0,0.5833916900446638,None,234.47012013802305,None,,,,,sophie,1,2,2020_Oct_30_1935,configural_featural,2020.2.4,None,
conf_face,Designs/instructions_face_1234.png,,,,,0,0,0,0,42,0,42,0,,,,,,,,,,,,,,,,,,,,,,,,,,,,,,,,,,,,,,,,,,,,,,,,,,,,,,,,,,,0,0.17295000000000002,0.0,Stimuli/eimd.png,Stimuli/eomu.png,None,None,None,j,1,0.6317923259921372,None,235.7703611489851,None,,,,,sophie,1,2,2020_Oct_30_1935,configural_featural,2020.2.4,None,
conf_face,Designs/instructions_face_1234.png,,,,,0,0,0,0,43,0,43,0,,,,,,,,,,,,,,,,,,,,,,,,,,,,,,,,,,,,,,,,,,,,,,,,,,,,,,,,,,,0,0.17295000000000002,1.0,Stimuli/eumu.png,Stimuli/eumu.png,None,None,None,f,1,0.37441666796803474,None,237.12042429903522,None,,,,,sophie,1,2,2020_Oct_30_1935,configural_featural,2020.2.4,None,
conf_face,Designs/instructions_face_1234.png,,,,,0,0,0,0,44,0,44,0,,,,,,,,,,,,,,,,,,,,,,,,,,,,,,,,,,,,,,,,,,,,,,,,,,,,,,,,,,,0,-0.17295000000000002,1.0,Stimuli/eimd.png,Stimuli/eimd.png,None,None,None,f,1,0.41695532598532736,None,238.2393504929496,None,,,,,sophie,1,2,2020_Oct_30_1935,configural_featural,2020.2.4,None,
conf_face,Designs/instructions_face_1234.png,,,,,0,0,0,0,45,0,45,0,,,,,,,,,,,,,,,,,,,,,,,,,,,,,,,,,,,,,,,,,,,,,,,,,,,,,,,,,,,0,-0.17295000000000002,1.0,Stimuli/eumu.png,Stimuli/eumu.png,None,None,None,f,1,0.3809978439239785,None,239.40365089394618,None,,,,,sophie,1,2,2020_Oct_30_1935,configural_featural,2020.2.4,None,
conf_face,Designs/instructions_face_1234.png,,,,,0,0,0,0,46,0,46,0,,,,,,,,,,,,,,,,,,,,,,,,,,,,,,,,,,,,,,,,,,,,,,,,,,,,,,,,,,,0,0.17295000000000002,0.0,Stimuli/eomu.png,Stimuli/eimd.png,None,None,None,f,0,0.5482396209845319,None,240.5036472219508,None,,,,,sophie,1,2,2020_Oct_30_1935,configural_featural,2020.2.4,None,
conf_face,Designs/instructions_face_1234.png,,,,,0,0,0,0,47,0,47,0,,,,,,,,,,,,,,,,,,,,,,,,,,,,,,,,,,,,,,,,,,,,,,,,,,,,,,,,,,,0,0.17295000000000002,0.0,Stimuli/eumu.png,Stimuli/eimd.png,None,None,None,f,0,0.5668277490185574,None,241.7731388269458,None,,,,,sophie,1,2,2020_Oct_30_1935,configural_featural,2020.2.4,None,
conf_haus,Designs/instructions_haus_1234.png,,,,,0,1,1,1,0,0,0,0,,,,,,,,,,,,,,,,,,,,,,,,,,,,,,,,,,,,,,,,,,,,,,,,,,,,,,,,,,,0,0.17295000000000002,0.0,Stimuli/H-8sim3.png,Stimuli/H-8sim1.png,None,None,None,f,0,1.1818695119582117,None,272.1039931620471,None,,,,,sophie,1,2,2020_Oct_30_1935,configural_featural,2020.2.4,None,
conf_haus,Designs/instructions_haus_1234.png,,,,,0,1,1,1,1,0,1,0,,,,,,,,,,,,,,,,,,,,,,,,,,,,,,,,,,,,,,,,,,,,,,,,,,,,,,,,,,,0,0.17295000000000002,1.0,Stimuli/H-8sim3.png,Stimuli/H-8sim3.png,None,None,None,f,1,1.3993799809832126,None,274.02067999204155,None,,,,,sophie,1,2,2020_Oct_30_1935,configural_featural,2020.2.4,None,
conf_haus,Designs/instructions_haus_1234.png,,,,,0,1,1,1,2,0,2,0,,,,,,,,,,,,,,,,,,,,,,,,,,,,,,,,,,,,,,,,,,,,,,,,,,,,,,,,,,,0,0.17295000000000002,1.0,Stimuli/H-8sim2.png,Stimuli/H-8sim2.png,None,None,None,f,1,0.34031776804476976,None,276.13742945494596,None,,,,,sophie,1,2,2020_Oct_30_1935,configural_featural,2020.2.4,None,
conf_haus,Designs/instructions_haus_1234.png,,,,,0,1,1,1,3,0,3,0,,,,,,,,,,,,,,,,,,,,,,,,,,,,,,,,,,,,,,,,,,,,,,,,,,,,,,,,,,,0,-0.17295000000000002,0.0,Stimuli/H-8sim1.png,Stimuli/H-8sim3.png,None,None,None,j,1,0.9297870460432023,None,277.2037998860469,None,,,,,sophie,1,2,2020_Oct_30_1935,configural_featural,2020.2.4,None,
conf_haus,Designs/instructions_haus_1234.png,,,,,0,1,1,1,4,0,4,0,,,,,,,,,,,,,,,,,,,,,,,,,,,,,,,,,,,,,,,,,,,,,,,,,,,,,,,,,,,0,0.17295000000000002,1.0,Stimuli/H-8sim1.png,Stimuli/H-8sim1.png,None,None,None,f,1,0.7304179959464818,None,278.8538053589873,None,,,,,sophie,1,2,2020_Oct_30_1935,configural_featural,2020.2.4,None,
conf_haus,Designs/instructions_haus_1234.png,,,,,0,1,1,1,5,0,5,0,,,,,,,,,,,,,,,,,,,,,,,,,,,,,,,,,,,,,,,,,,,,,,,,,,,,,,,,,,,0,-0.17295000000000002,0.0,Stimuli/H-8sim0.png,Stimuli/H-8sim1.png,None,None,None,j,1,0.6923439849633723,None,280.3037663489813,None,,,,,sophie,1,2,2020_Oct_30_1935,configural_featural,2020.2.4,None,
conf_haus,Designs/instructions_haus_1234.png,,,,,0,1,1,1,6,0,6,0,,,,,,,,,,,,,,,,,,,,,,,,,,,,,,,,,,,,,,,,,,,,,,,,,,,,,,,,,,,0,-0.17295000000000002,1.0,Stimuli/H-8sim2.png,Stimuli/H-8sim2.png,None,None,None,f,1,0.6503200689330697,None,281.7206968109822,None,,,,,sophie,1,2,2020_Oct_30_1935,configural_featural,2020.2.4,None,
conf_haus,Designs/instructions_haus_1234.png,,,,,0,1,1,1,7,0,7,0,,,,,,,,,,,,,,,,,,,,,,,,,,,,,,,,,,,,,,,,,,,,,,,,,,,,,,,,,,,0,-0.17295000000000002,0.0,Stimuli/H-8sim0.png,Stimuli/H-8sim2.png,None,None,None,j,1,0.6421702690422535,None,283.0873578309547,None,,,,,sophie,1,2,2020_Oct_30_1935,configural_featural,2020.2.4,None,
conf_haus,Designs/instructions_haus_1234.png,,,,,0,1,1,1,8,0,8,0,,,,,,,,,,,,,,,,,,,,,,,,,,,,,,,,,,,,,,,,,,,,,,,,,,,,,,,,,,,1,-0.17295000000000002,1.0,Stimuli/H-8sim0.png,Stimuli/H-8sim0.png,None,None,None,f,1,0.640468202996999,space,284.4564994230168,None,0.026205118978396058,,,,sophie,1,2,2020_Oct_30_1935,configural_featural,2020.2.4,None,
conf_haus,Designs/instructions_haus_1234.png,,,,,0,1,1,1,9,0,9,0,,,,,,,,,,,,,,,,,,,,,,,,,,,,,,,,,,,,,,,,,,,,,,,,,,,,,,,,,,,0,0.17295000000000002,0.0,Stimuli/H-8sim0.png,Stimuli/H-8sim1.png,None,None,None,j,1,0.369640874909237,None,285.8234255190473,None,,,,,sophie,1,2,2020_Oct_30_1935,configural_featural,2020.2.4,None,
conf_haus,Designs/instructions_haus_1234.png,,,,,0,1,1,1,10,0,10,0,,,,,,,,,,,,,,,,,,,,,,,,,,,,,,,,,,,,,,,,,,,,,,,,,,,,,,,,,,,0,-0.17295000000000002,1.0,Stimuli/H-8sim3.png,Stimuli/H-8sim3.png,None,None,None,f,1,0.6289441289845854,None,286.9209348449949,None,,,,,sophie,1,2,2020_Oct_30_1935,configural_featural,2020.2.4,None,
conf_haus,Designs/instructions_haus_1234.png,,,,,0,1,1,1,11,0,11,0,,,,,,,,,,,,,,,,,,,,,,,,,,,,,,,,,,,,,,,,,,,,,,,,,,,,,,,,,,,0,0.17295000000000002,0.0,Stimuli/H-8sim3.png,Stimuli/H-8sim0.png,None,None,None,j,1,0.41312034998554736,None,288.27087244403083,None,,,,,sophie,1,2,2020_Oct_30_1935,configural_featural,2020.2.4,None,
conf_haus,Designs/instructions_haus_1234.png,,,,,0,1,1,1,12,0,12,0,,,,,,,,,,,,,,,,,,,,,,,,,,,,,,,,,,,,,,,,,,,,,,,,,,,,,,,,,,,1,0.17295000000000002,0.0,Stimuli/H-8sim2.png,Stimuli/H-8sim3.png,None,None,None,j,1,2.2977348379790783,None,289.4040939969709,None,,,,,sophie,1,2,2020_Oct_30_1935,configural_featural,2020.2.4,None,
conf_haus,Designs/instructions_haus_1234.png,,,,,0,1,1,1,13,0,13,0,,,,,,,,,,,,,,,,,,,,,,,,,,,,,,,,,,,,,,,,,,,,,,,,,,,,,,,,,,,0,-0.17295000000000002,1.0,Stimuli/H-8sim1.png,Stimuli/H-8sim1.png,None,None,None,f,1,18.47711818094831,None,292.4234091610415,None,,,,,sophie,1,2,2020_Oct_30_1935,configural_featural,2020.2.4,None,
conf_haus,Designs/instructions_haus_1234.png,,,,,0,1,1,1,14,0,14,0,,,,,,,,,,,,,,,,,,,,,,,,,,,,,,,,,,,,,,,,,,,,,,,,,,,,,,,,,,,0,0.17295000000000002,0.0,Stimuli/H-8sim3.png,Stimuli/H-8sim2.png,None,None,None,f,0,0.5946352810133249,None,311.6210153589491,None,,,,,sophie,1,2,2020_Oct_30_1935,configural_featural,2020.2.4,None,
conf_haus,Designs/instructions_haus_1234.png,,,,,0,1,1,1,15,0,15,0,,,,,,,,,,,,,,,,,,,,,,,,,,,,,,,,,,,,,,,,,,,,,,,,,,,,,,,,,,,0,-0.17295000000000002,0.0,Stimuli/H-8sim3.png,Stimuli/H-8sim0.png,None,None,None,j,1,0.3328590990277007,None,312.9401633569505,None,,,,,sophie,1,2,2020_Oct_30_1935,configural_featural,2020.2.4,None,
conf_haus,Designs/instructions_haus_1234.png,,,,,0,1,1,1,16,0,16,0,,,,,,,,,,,,,,,,,,,,,,,,,,,,,,,,,,,,,,,,,,,,,,,,,,,,,,,,,,,0,-0.17295000000000002,1.0,Stimuli/H-8sim2.png,Stimuli/H-8sim2.png,None,None,None,j,0,0.30850898299831897,None,313.98761546693277,None,,,,,sophie,1,2,2020_Oct_30_1935,configural_featural,2020.2.4,None,
conf_haus,Designs/instructions_haus_1234.png,,,,,0,1,1,1,17,0,17,0,,,,,,,,,,,,,,,,,,,,,,,,,,,,,,,,,,,,,,,,,,,,,,,,,,,,,,,,,,,0,0.17295000000000002,1.0,Stimuli/H-8sim0.png,Stimuli/H-8sim0.png,None,None,None,f,1,0.31075234594754875,None,315.0210731989937,None,,,,,sophie,1,2,2020_Oct_30_1935,configural_featural,2020.2.4,None,
conf_haus,Designs/instructions_haus_1234.png,,,,,0,1,1,1,18,0,18,0,,,,,,,,,,,,,,,,,,,,,,,,,,,,,,,,,,,,,,,,,,,,,,,,,,,,,,,,,,,0,-0.17295000000000002,1.0,Stimuli/H-8sim0.png,Stimuli/H-8sim0.png,None,None,None,f,1,0.8327144290087745,None,316.0710446470184,None,,,,,sophie,1,2,2020_Oct_30_1935,configural_featural,2020.2.4,None,
conf_haus,Designs/instructions_haus_1234.png,,,,,0,1,1,1,19,0,19,0,,,,,,,,,,,,,,,,,,,,,,,,,,,,,,,,,,,,,,,,,,,,,,,,,,,,,,,,,,,0,0.17295000000000002,1.0,Stimuli/H-8sim2.png,Stimuli/H-8sim2.png,None,None,None,f,1,0.3420494219753891,None,317.6374463259708,None,,,,,sophie,1,2,2020_Oct_30_1935,configural_featural,2020.2.4,None,
conf_haus,Designs/instructions_haus_1234.png,,,,,0,1,1,1,20,0,20,0,,,,,,,,,,,,,,,,,,,,,,,,,,,,,,,,,,,,,,,,,,,,,,,,,,,,,,,,,,,0,0.17295000000000002,1.0,Stimuli/H-8sim1.png,Stimuli/H-8sim1.png,None,None,None,f,1,0.4700152160366997,None,318.7044109629933,None,,,,,sophie,1,2,2020_Oct_30_1935,configural_featural,2020.2.4,None,
conf_haus,Designs/instructions_haus_1234.png,,,,,0,1,1,1,21,0,21,0,,,,,,,,,,,,,,,,,,,,,,,,,,,,,,,,,,,,,,,,,,,,,,,,,,,,,,,,,,,0,0.17295000000000002,0.0,Stimuli/H-8sim0.png,Stimuli/H-8sim3.png,None,None,None,j,1,0.43807021994143724,None,319.90683934197295,None,,,,,sophie,1,2,2020_Oct_30_1935,configural_featural,2020.2.4,None,
conf_haus,Designs/instructions_haus_1234.png,,,,,0,1,1,1,22,0,22,0,,,,,,,,,,,,,,,,,,,,,,,,,,,,,,,,,,,,,,,,,,,,,,,,,,,,,,,,,,,0,-0.17295000000000002,0.0,Stimuli/H-8sim3.png,Stimuli/H-8sim2.png,None,None,None,j,1,0.48002618399914354,None,321.0710483279545,None,,,,,sophie,1,2,2020_Oct_30_1935,configural_featural,2020.2.4,None,
conf_haus,Designs/instructions_haus_1234.png,,,,,0,1,1,1,23,0,23,0,,,,,,,,,,,,,,,,,,,,,,,,,,,,,,,,,,,,,,,,,,,,,,,,,,,,,,,,,,,0,0.17295000000000002,0.0,Stimuli/H-8sim2.png,Stimuli/H-8sim1.png,None,None,None,f,0,0.5345477979863063,None,322.27101766096894,None,,,,,sophie,1,2,2020_Oct_30_1935,configural_featural,2020.2.4,None,
conf_haus,Designs/instructions_haus_1234.png,,,,,0,1,1,1,24,0,24,0,,,,,,,,,,,,,,,,,,,,,,,,,,,,,,,,,,,,,,,,,,,,,,,,,,,,,,,,,,,0,0.17295000000000002,0.0,Stimuli/H-8sim2.png,Stimuli/H-8sim0.png,None,None,None,j,1,0.5329151580808684,None,323.537646363955,None,,,,,sophie,1,2,2020_Oct_30_1935,configural_featural,2020.2.4,None,
conf_haus,Designs/instructions_haus_1234.png,,,,,0,1,1,1,25,0,25,0,,,,,,,,,,,,,,,,,,,,,,,,,,,,,,,,,,,,,,,,,,,,,,,,,,,,,,,,,,,0,0.17295000000000002,0.0,Stimuli/H-8sim1.png,Stimuli/H-8sim2.png,None,None,None,j,1,0.32831462600734085,None,324.78765074000694,None,,,,,sophie,1,2,2020_Oct_30_1935,configural_featural,2020.2.4,None,
conf_haus,Designs/instructions_haus_1234.png,,,,,0,1,1,1,26,0,26,0,,,,,,,,,,,,,,,,,,,,,,,,,,,,,,,,,,,,,,,,,,,,,,,,,,,,,,,,,,,0,0.17295000000000002,1.0,Stimuli/H-8sim0.png,Stimuli/H-8sim0.png,None,None,None,f,1,0.5010663790162653,None,325.8397535190452,None,,,,,sophie,1,2,2020_Oct_30_1935,configural_featural,2020.2.4,None,
conf_haus,Designs/instructions_haus_1234.png,,,,,0,1,1,1,27,0,27,0,,,,,,,,,,,,,,,,,,,,,,,,,,,,,,,,,,,,,,,,,,,,,,,,,,,,,,,,,,,0,0.17295000000000002,1.0,Stimuli/H-8sim3.png,Stimuli/H-8sim3.png,None,None,None,f,1,0.29444043908733875,None,327.08893100800924,None,,,,,sophie,1,2,2020_Oct_30_1935,configural_featural,2020.2.4,None,
conf_haus,Designs/instructions_haus_1234.png,,,,,0,1,1,1,28,0,28,0,,,,,,,,,,,,,,,,,,,,,,,,,,,,,,,,,,,,,,,,,,,,,,,,,,,,,,,,,,,1,-0.17295000000000002,1.0,Stimuli/H-8sim3.png,Stimuli/H-8sim3.png,None,None,None,f,1,0.2828961929772049,None,328.1042362629669,None,,,,,sophie,1,2,2020_Oct_30_1935,configural_featural,2020.2.4,None,
conf_haus,Designs/instructions_haus_1234.png,,,,,0,1,1,1,29,0,29,0,,,,,,,,,,,,,,,,,,,,,,,,,,,,,,,,,,,,,,,,,,,,,,,,,,,,,,,,,,,0,0.17295000000000002,0.0,Stimuli/H-8sim1.png,Stimuli/H-8sim3.png,None,None,None,j,1,0.46020312095060945,None,329.1042925149668,None,,,,,sophie,1,2,2020_Oct_30_1935,configural_featural,2020.2.4,None,
conf_haus,Designs/instructions_haus_1234.png,,,,,0,1,1,1,30,0,30,0,,,,,,,,,,,,,,,,,,,,,,,,,,,,,,,,,,,,,,,,,,,,,,,,,,,,,,,,,,,1,-0.17295000000000002,0.0,Stimuli/H-8sim2.png,Stimuli/H-8sim1.png,None,None,None,j,1,0.3893404449336231,None,330.28759031300433,None,,,,,sophie,1,2,2020_Oct_30_1935,configural_featural,2020.2.4,None,
conf_haus,Designs/instructions_haus_1234.png,,,,,0,1,1,1,31,0,31,0,,,,,,,,,,,,,,,,,,,,,,,,,,,,,,,,,,,,,,,,,,,,,,,,,,,,,,,,,,,0,-0.17295000000000002,1.0,Stimuli/H-8sim1.png,Stimuli/H-8sim1.png,None,None,None,f,1,0.47393769200425595,None,331.4069625750417,None,,,,,sophie,1,2,2020_Oct_30_1935,configural_featural,2020.2.4,None,
conf_haus,Designs/instructions_haus_1234.png,,,,,0,1,1,1,32,0,32,0,,,,,,,,,,,,,,,,,,,,,,,,,,,,,,,,,,,,,,,,,,,,,,,,,,,,,,,,,,,0,-0.17295000000000002,0.0,Stimuli/H-8sim0.png,Stimuli/H-8sim3.png,None,None,None,j,1,0.358126699924469,None,332.606957298005,None,,,,,sophie,1,2,2020_Oct_30_1935,configural_featural,2020.2.4,None,
conf_haus,Designs/instructions_haus_1234.png,,,,,0,1,1,1,33,0,33,0,,,,,,,,,,,,,,,,,,,,,,,,,,,,,,,,,,,,,,,,,,,,,,,,,,,,,,,,,,,0,0.17295000000000002,0.0,Stimuli/H-8sim1.png,Stimuli/H-8sim0.png,None,None,None,f,0,0.38334337796550244,None,333.6876298999414,None,,,,,sophie,1,2,2020_Oct_30_1935,configural_featural,2020.2.4,None,
conf_haus,Designs/instructions_haus_1234.png,,,,,0,1,1,1,34,0,34,0,,,,,,,,,,,,,,,,,,,,,,,,,,,,,,,,,,,,,,,,,,,,,,,,,,,,,,,,,,,0,-0.17295000000000002,1.0,Stimuli/H-8sim0.png,Stimuli/H-8sim0.png,None,None,None,f,1,0.2909898429643363,None,334.7877388120396,None,,,,,sophie,1,2,2020_Oct_30_1935,configural_featural,2020.2.4,None,
conf_haus,Designs/instructions_haus_1234.png,,,,,0,1,1,1,35,0,35,0,,,,,,,,,,,,,,,,,,,,,,,,,,,,,,,,,,,,,,,,,,,,,,,,,,,,,,,,,,,0,-0.17295000000000002,1.0,Stimuli/H-8sim1.png,Stimuli/H-8sim1.png,None,None,None,f,1,0.38777165894862264,None,335.80699998303317,None,,,,,sophie,1,2,2020_Oct_30_1935,configural_featural,2020.2.4,None,
conf_haus,Designs/instructions_haus_1234.png,,,,,0,1,1,1,36,0,36,0,,,,,,,,,,,,,,,,,,,,,,,,,,,,,,,,,,,,,,,,,,,,,,,,,,,,,,,,,,,1,0.17295000000000002,1.0,Stimuli/H-8sim3.png,Stimuli/H-8sim3.png,None,None,None,f,1,0.3757553370669484,None,336.92096385604236,None,,,,,sophie,1,2,2020_Oct_30_1935,configural_featural,2020.2.4,None,
conf_haus,Designs/instructions_haus_1234.png,,,,,0,1,1,1,37,0,37,0,,,,,,,,,,,,,,,,,,,,,,,,,,,,,,,,,,,,,,,,,,,,,,,,,,,,,,,,,,,0,0.17295000000000002,0.0,Stimuli/H-8sim0.png,Stimuli/H-8sim2.png,None,None,None,j,1,0.25939162098802626,None,338.0235625540372,None,,,,,sophie,1,2,2020_Oct_30_1935,configural_featural,2020.2.4,None,
conf_haus,Designs/instructions_haus_1234.png,,,,,0,1,1,1,38,0,38,0,,,,,,,,,,,,,,,,,,,,,,,,,,,,,,,,,,,,,,,,,,,,,,,,,,,,,,,,,,,0,-0.17295000000000002,0.0,Stimuli/H-8sim1.png,Stimuli/H-8sim0.png,None,None,None,f,0,0.43446064298041165,None,339.00452656601556,None,,,,,sophie,1,2,2020_Oct_30_1935,configural_featural,2020.2.4,None,
conf_haus,Designs/instructions_haus_1234.png,,,,,0,1,1,1,39,0,39,0,,,,,,,,,,,,,,,,,,,,,,,,,,,,,,,,,,,,,,,,,,,,,,,,,,,,,,,,,,,0,-0.17295000000000002,1.0,Stimuli/H-8sim3.png,Stimuli/H-8sim3.png,None,None,None,f,1,0.7971260428894311,None,340.1543616260169,None,,,,,sophie,1,2,2020_Oct_30_1935,configural_featural,2020.2.4,None,
conf_haus,Designs/instructions_haus_1234.png,,,,,0,1,1,1,40,0,40,0,,,,,,,,,,,,,,,,,,,,,,,,,,,,,,,,,,,,,,,,,,,,,,,,,,,,,,,,,,,1,0.17295000000000002,1.0,Stimuli/H-8sim0.png,Stimuli/H-8sim0.png,None,None,None,f,1,0.24311709601897746,None,341.67120634194,None,,,,,sophie,1,2,2020_Oct_30_1935,configural_featural,2020.2.4,None,
conf_haus,Designs/instructions_haus_1234.png,,,,,0,1,1,1,41,0,41,0,,,,,,,,,,,,,,,,,,,,,,,,,,,,,,,,,,,,,,,,,,,,,,,,,,,,,,,,,,,0,-0.17295000000000002,0.0,Stimuli/H-8sim2.png,Stimuli/H-8sim0.png,None,None,None,j,1,0.3364628350827843,None,342.6545091680018,None,,,,,sophie,1,2,2020_Oct_30_1935,configural_featural,2020.2.4,None,
conf_haus,Designs/instructions_haus_1234.png,,,,,0,1,1,1,42,0,42,0,,,,,,,,,,,,,,,,,,,,,,,,,,,,,,,,,,,,,,,,,,,,,,,,,,,,,,,,,,,0,-0.17295000000000002,0.0,Stimuli/H-8sim3.png,Stimuli/H-8sim1.png,None,None,None,j,1,0.3837498299544677,None,343.73795327101834,None,,,,,sophie,1,2,2020_Oct_30_1935,configural_featural,2020.2.4,None,
conf_haus,Designs/instructions_haus_1234.png,,,,,0,1,1,1,43,0,43,0,,,,,,,,,,,,,,,,,,,,,,,,,,,,,,,,,,,,,,,,,,,,,,,,,,,,,,,,,,,0,0.17295000000000002,1.0,Stimuli/H-8sim1.png,Stimuli/H-8sim1.png,None,None,None,f,1,0.3202225799905136,None,344.83802602102514,None,,,,,sophie,1,2,2020_Oct_30_1935,configural_featural,2020.2.4,None,
conf_haus,Designs/instructions_haus_1234.png,,,,,0,1,1,1,44,0,44,0,,,,,,,,,,,,,,,,,,,,,,,,,,,,,,,,,,,,,,,,,,,,,,,,,,,,,,,,,,,0,-0.17295000000000002,1.0,Stimuli/H-8sim2.png,Stimuli/H-8sim2.png,None,None,None,j,0,1.010609123040922,None,345.88779217598494,None,,,,,sophie,1,2,2020_Oct_30_1935,configural_featural,2020.2.4,None,
conf_haus,Designs/instructions_haus_1234.png,,,,,0,1,1,1,45,0,45,0,,,,,,,,,,,,,,,,,,,,,,,,,,,,,,,,,,,,,,,,,,,,,,,,,,,,,,,,,,,0,0.17295000000000002,1.0,Stimuli/H-8sim2.png,Stimuli/H-8sim2.png,None,None,None,f,1,0.37265614490024745,None,347.6211373610422,None,,,,,sophie,1,2,2020_Oct_30_1935,configural_featural,2020.2.4,None,
conf_haus,Designs/instructions_haus_1234.png,,,,,0,1,1,1,46,0,46,0,,,,,,,,,,,,,,,,,,,,,,,,,,,,,,,,,,,,,,,,,,,,,,,,,,,,,,,,,,,0,-0.17295000000000002,0.0,Stimuli/H-8sim1.png,Stimuli/H-8sim2.png,None,None,None,j,1,0.23958599905017763,None,348.73787539394107,None,,,,,sophie,1,2,2020_Oct_30_1935,configural_featural,2020.2.4,None,
conf_haus,Designs/instructions_haus_1234.png,,,,,0,1,1,1,47,0,47,0,,,,,,,,,,,,,,,,,,,,,,,,,,,,,,,,,,,,,,,,,,,,,,,,,,,,,,,,,,,0,-0.17295000000000002,0.0,Stimuli/H-8sim2.png,Stimuli/H-8sim3.png,None,None,None,f,0,0.5894027820322663,None,349.7071631749859,None,,,,,sophie,1,2,2020_Oct_30_1935,configural_featural,2020.2.4,None,
feat_face,Designs/instructions_face_1234.png,,,,,0,2,2,2,0,0,0,0,,,,,,,,,,,,,,,,,,,,,,,,,,,,,,,,,,,,,,,,,,,,,,,,,,,,,,,,,,,0,0.17295000000000002,0.0,Stimuli/f15.png,Stimuli/f142.png,None,None,None,j,1,0.5556502579711378,None,360.12140974903014,None,,,,,sophie,1,2,2020_Oct_30_1935,configural_featural,2020.2.4,None,
feat_face,Designs/instructions_face_1234.png,,,,,0,2,2,2,1,0,1,0,,,,,,,,,,,,,,,,,,,,,,,,,,,,,,,,,,,,,,,,,,,,,,,,,,,,,,,,,,,0,0.17295000000000002,1.0,Stimuli/f131.png,Stimuli/f131.png,None,None,None,f,1,0.6621667679864913,None,361.42133433104027,None,,,,,sophie,1,2,2020_Oct_30_1935,configural_featural,2020.2.4,None,
feat_face,Designs/instructions_face_1234.png,,,,,0,2,2,2,2,0,2,0,,,,,,,,,,,,,,,,,,,,,,,,,,,,,,,,,,,,,,,,,,,,,,,,,,,,,,,,,,,0,0.17295000000000002,0.0,Stimuli/f131.png,Stimuli/f142.png,None,None,None,j,1,0.4145364830037579,None,362.8213026849553,None,,,,,sophie,1,2,2020_Oct_30_1935,configural_featural,2020.2.4,None,
feat_face,Designs/instructions_face_1234.png,,,,,0,2,2,2,3,0,3,0,,,,,,,,,,,,,,,,,,,,,,,,,,,,,,,,,,,,,,,,,,,,,,,,,,,,,,,,,,,0,-0.17295000000000002,0.0,Stimuli/f24.png,Stimuli/f131.png,None,None,None,j,1,0.6080102080013603,None,363.95475862000603,None,,,,,sophie,1,2,2020_Oct_30_1935,configural_featural,2020.2.4,None,
feat_face,Designs/instructions_face_1234.png,,,,,0,2,2,2,4,0,4,0,,,,,,,,,,,,,,,,,,,,,,,,,,,,,,,,,,,,,,,,,,,,,,,,,,,,,,,,,,,1,0.17295000000000002,1.0,Stimuli/f142.png,Stimuli/f142.png,None,None,None,j,0,0.46370616601780057,None,365.29055236594286,None,,,,,sophie,1,2,2020_Oct_30_1935,configural_featural,2020.2.4,None,
feat_face,Designs/instructions_face_1234.png,,,,,0,2,2,2,5,0,5,0,,,,,,,,,,,,,,,,,,,,,,,,,,,,,,,,,,,,,,,,,,,,,,,,,,,,,,,,,,,0,-0.17295000000000002,1.0,Stimuli/f15.png,Stimuli/f15.png,None,None,None,f,1,0.29626115190330893,None,366.4880238189362,None,,,,,sophie,1,2,2020_Oct_30_1935,configural_featural,2020.2.4,None,
feat_face,Designs/instructions_face_1234.png,,,,,0,2,2,2,6,0,6,0,,,,,,,,,,,,,,,,,,,,,,,,,,,,,,,,,,,,,,,,,,,,,,,,,,,,,,,,,,,0,-0.17295000000000002,0.0,Stimuli/f142.png,Stimuli/f24.png,None,None,None,f,0,0.3220479330047965,None,367.5047712259693,None,,,,,sophie,1,2,2020_Oct_30_1935,configural_featural,2020.2.4,None,
feat_face,Designs/instructions_face_1234.png,,,,,0,2,2,2,7,0,7,0,,,,,,,,,,,,,,,,,,,,,,,,,,,,,,,,,,,,,,,,,,,,,,,,,,,,,,,,,,,0,-0.17295000000000002,0.0,Stimuli/f24.png,Stimuli/f142.png,None,None,None,j,1,0.4181298940675333,None,368.55456651898567,None,,,,,sophie,1,2,2020_Oct_30_1935,configural_featural,2020.2.4,None,
feat_face,Designs/instructions_face_1234.png,,,,,0,2,2,2,8,0,8,0,,,,,,,,,,,,,,,,,,,,,,,,,,,,,,,,,,,,,,,,,,,,,,,,,,,,,,,,,,,0,0.17295000000000002,0.0,Stimuli/f131.png,Stimuli/f24.png,None,None,None,j,1,0.42257405596319586,None,369.70474357297644,None,,,,,sophie,1,2,2020_Oct_30_1935,configural_featural,2020.2.4,None,
feat_face,Designs/instructions_face_1234.png,,,,,0,2,2,2,9,0,9,0,,,,,,,,,,,,,,,,,,,,,,,,,,,,,,,,,,,,,,,,,,,,,,,,,,,,,,,,,,,0,-0.17295000000000002,1.0,Stimuli/f142.png,Stimuli/f142.png,None,None,None,f,1,0.352979113929905,None,370.8548078449676,None,,,,,sophie,1,2,2020_Oct_30_1935,configural_featural,2020.2.4,None,
feat_face,Designs/instructions_face_1234.png,,,,,0,2,2,2,10,0,10,0,,,,,,,,,,,,,,,,,,,,,,,,,,,,,,,,,,,,,,,,,,,,,,,,,,,,,,,,,,,0,0.17295000000000002,1.0,Stimuli/f15.png,Stimuli/f15.png,None,None,None,f,1,0.27606294793076813,None,371.93820750899613,None,,,,,sophie,1,2,2020_Oct_30_1935,configural_featural,2020.2.4,None,
feat_face,Designs/instructions_face_1234.png,,,,,0,2,2,2,11,0,11,0,,,,,,,,,,,,,,,,,,,,,,,,,,,,,,,,,,,,,,,,,,,,,,,,,,,,,,,,,,,0,0.17295000000000002,1.0,Stimuli/f24.png,Stimuli/f24.png,None,None,None,f,1,0.3356009360868484,None,372.9381156320451,None,,,,,sophie,1,2,2020_Oct_30_1935,configural_featural,2020.2.4,None,
feat_face,Designs/instructions_face_1234.png,,,,,0,2,2,2,12,0,12,0,,,,,,,,,,,,,,,,,,,,,,,,,,,,,,,,,,,,,,,,,,,,,,,,,,,,,,,,,,,0,0.17295000000000002,0.0,Stimuli/f24.png,Stimuli/f131.png,None,None,None,j,1,0.39312682393938303,None,374.00472304900177,None,,,,,sophie,1,2,2020_Oct_30_1935,configural_featural,2020.2.4,None,
feat_face,Designs/instructions_face_1234.png,,,,,0,2,2,2,13,0,13,0,,,,,,,,,,,,,,,,,,,,,,,,,,,,,,,,,,,,,,,,,,,,,,,,,,,,,,,,,,,0,0.17295000000000002,1.0,Stimuli/f15.png,Stimuli/f15.png,None,None,None,f,1,0.49415109993424267,None,375.1381363469409,None,,,,,sophie,1,2,2020_Oct_30_1935,configural_featural,2020.2.4,None,
feat_face,Designs/instructions_face_1234.png,,,,,0,2,2,2,14,0,14,0,,,,,,,,,,,,,,,,,,,,,,,,,,,,,,,,,,,,,,,,,,,,,,,,,,,,,,,,,,,0,-0.17295000000000002,0.0,Stimuli/f131.png,Stimuli/f15.png,None,None,None,j,1,0.7199843840207905,None,376.3547472539358,None,,,,,sophie,1,2,2020_Oct_30_1935,configural_featural,2020.2.4,None,
feat_face,Designs/instructions_face_1234.png,,,,,0,2,2,2,15,0,15,0,,,,,,,,,,,,,,,,,,,,,,,,,,,,,,,,,,,,,,,,,,,,,,,,,,,,,,,,,,,0,0.17295000000000002,1.0,Stimuli/f131.png,Stimuli/f131.png,None,None,None,j,0,0.4844374469248578,None,377.804874875932,None,,,,,sophie,1,2,2020_Oct_30_1935,configural_featural,2020.2.4,None,
feat_face,Designs/instructions_face_1234.png,,,,,0,2,2,2,16,0,16,0,,,,,,,,,,,,,,,,,,,,,,,,,,,,,,,,,,,,,,,,,,,,,,,,,,,,,,,,,,,0,-0.17295000000000002,1.0,Stimuli/f131.png,Stimuli/f131.png,None,None,None,j,0,0.4764583120122552,None,379.0238012820482,None,,,,,sophie,1,2,2020_Oct_30_1935,configural_featural,2020.2.4,None,
feat_face,Designs/instructions_face_1234.png,,,,,0,2,2,2,17,0,17,0,,,,,,,,,,,,,,,,,,,,,,,,,,,,,,,,,,,,,,,,,,,,,,,,,,,,,,,,,,,1,0.17295000000000002,0.0,Stimuli/f15.png,Stimuli/f24.png,None,None,None,j,1,0.34915983106475323,None,380.2215871149674,None,,,,,sophie,1,2,2020_Oct_30_1935,configural_featural,2020.2.4,None,
feat_face,Designs/instructions_face_1234.png,,,,,0,2,2,2,18,0,18,0,,,,,,,,,,,,,,,,,,,,,,,,,,,,,,,,,,,,,,,,,,,,,,,,,,,,,,,,,,,0,-0.17295000000000002,0.0,Stimuli/f15.png,Stimuli/f131.png,None,None,None,j,1,0.8439278539735824,None,381.288172716042,None,,,,,sophie,1,2,2020_Oct_30_1935,configural_featural,2020.2.4,None,
feat_face,Designs/instructions_face_1234.png,,,,,0,2,2,2,19,0,19,0,,,,,,,,,,,,,,,,,,,,,,,,,,,,,,,,,,,,,,,,,,,,,,,,,,,,,,,,,,,0,0.17295000000000002,1.0,Stimuli/f142.png,Stimuli/f142.png,None,None,None,f,1,0.4504890339449048,None,382.8547016979428,None,,,,,sophie,1,2,2020_Oct_30_1935,configural_featural,2020.2.4,None,
feat_face,Designs/instructions_face_1234.png,,,,,0,2,2,2,20,0,20,0,,,,,,,,,,,,,,,,,,,,,,,,,,,,,,,,,,,,,,,,,,,,,,,,,,,,,,,,,,,0,-0.17295000000000002,1.0,Stimuli/f24.png,Stimuli/f24.png,None,None,None,j,0,5.155842074891552,None,384.0213355959859,None,,,,,sophie,1,2,2020_Oct_30_1935,configural_featural,2020.2.4,None,
feat_face,Designs/instructions_face_1234.png,,,,,0,2,2,2,21,0,21,0,,,,,,,,,,,,,,,,,,,,,,,,,,,,,,,,,,,,,,,,,,,,,,,,,,,,,,,,,,,0,-0.17295000000000002,0.0,Stimuli/f15.png,Stimuli/f24.png,None,None,None,j,1,0.27909992705099285,None,389.9049209629884,None,,,,,sophie,1,2,2020_Oct_30_1935,configural_featural,2020.2.4,None,
feat_face,Designs/instructions_face_1234.png,,,,,0,2,2,2,22,0,22,0,,,,,,,,,,,,,,,,,,,,,,,,,,,,,,,,,,,,,,,,,,,,,,,,,,,,,,,,,,,0,0.17295000000000002,0.0,Stimuli/f24.png,Stimuli/f15.png,None,None,None,j,1,0.286646201973781,None,390.90496422804426,None,,,,,sophie,1,2,2020_Oct_30_1935,configural_featural,2020.2.4,None,
feat_face,Designs/instructions_face_1234.png,,,,,0,2,2,2,23,0,23,0,,,,,,,,,,,,,,,,,,,,,,,,,,,,,,,,,,,,,,,,,,,,,,,,,,,,,,,,,,,1,-0.17295000000000002,1.0,Stimuli/f24.png,Stimuli/f24.png,None,None,None,f,1,0.28300681500695646,None,391.9382646869635,None,,,,,sophie,1,2,2020_Oct_30_1935,configural_featural,2020.2.4,None,
feat_face,Designs/instructions_face_1234.png,,,,,0,2,2,2,24,0,24,0,,,,,,,,,,,,,,,,,,,,,,,,,,,,,,,,,,,,,,,,,,,,,,,,,,,,,,,,,,,0,0.17295000000000002,1.0,Stimuli/f24.png,Stimuli/f24.png,None,None,None,f,1,0.36761932901572436,None,392.94073199201375,None,,,,,sophie,1,2,2020_Oct_30_1935,configural_featural,2020.2.4,None,
feat_face,Designs/instructions_face_1234.png,,,,,0,2,2,2,25,0,25,0,,,,,,,,,,,,,,,,,,,,,,,,,,,,,,,,,,,,,,,,,,,,,,,,,,,,,,,,,,,0,-0.17295000000000002,0.0,Stimuli/f142.png,Stimuli/f15.png,None,None,None,j,1,0.3353238540003076,None,394.03810663102195,None,,,,,sophie,1,2,2020_Oct_30_1935,configural_featural,2020.2.4,None,
feat_face,Designs/instructions_face_1234.png,,,,,0,2,2,2,26,0,26,0,,,,,,,,,,,,,,,,,,,,,,,,,,,,,,,,,,,,,,,,,,,,,,,,,,,,,,,,,,,0,-0.17295000000000002,1.0,Stimuli/f142.png,Stimuli/f142.png,None,None,None,f,1,0.372048579971306,None,395.1214937289478,None,,,,,sophie,1,2,2020_Oct_30_1935,configural_featural,2020.2.4,None,
feat_face,Designs/instructions_face_1234.png,,,,,0,2,2,2,27,0,27,0,,,,,,,,,,,,,,,,,,,,,,,,,,,,,,,,,,,,,,,,,,,,,,,,,,,,,,,,,,,0,-0.17295000000000002,0.0,Stimuli/f15.png,Stimuli/f142.png,None,None,None,j,1,0.288462745025754,None,396.2213432920398,None,,,,,sophie,1,2,2020_Oct_30_1935,configural_featural,2020.2.4,None,
feat_face,Designs/instructions_face_1234.png,,,,,0,2,2,2,28,0,28,0,,,,,,,,,,,,,,,,,,,,,,,,,,,,,,,,,,,,,,,,,,,,,,,,,,,,,,,,,,,0,0.17295000000000002,0.0,Stimuli/f24.png,Stimuli/f142.png,None,None,None,j,1,0.49727307294961065,None,397.23799972003326,None,,,,,sophie,1,2,2020_Oct_30_1935,configural_featural,2020.2.4,None,
feat_face,Designs/instructions_face_1234.png,,,,,0,2,2,2,29,0,29,0,,,,,,,,,,,,,,,,,,,,,,,,,,,,,,,,,,,,,,,,,,,,,,,,,,,,,,,,,,,0,-0.17295000000000002,1.0,Stimuli/f15.png,Stimuli/f15.png,None,None,None,f,1,0.39452594402246177,None,398.45729199098423,None,,,,,sophie,1,2,2020_Oct_30_1935,configural_featural,2020.2.4,None,
feat_face,Designs/instructions_face_1234.png,,,,,0,2,2,2,30,0,30,0,,,,,,,,,,,,,,,,,,,,,,,,,,,,,,,,,,,,,,,,,,,,,,,,,,,,,,,,,,,0,-0.17295000000000002,0.0,Stimuli/f131.png,Stimuli/f142.png,None,None,None,j,1,0.31999321503099054,None,399.5715868859552,None,,,,,sophie,1,2,2020_Oct_30_1935,configural_featural,2020.2.4,None,
feat_face,Designs/instructions_face_1234.png,,,,,0,2,2,2,31,0,31,0,,,,,,,,,,,,,,,,,,,,,,,,,,,,,,,,,,,,,,,,,,,,,,,,,,,,,,,,,,,0,0.17295000000000002,1.0,Stimuli/f142.png,Stimuli/f142.png,None,None,None,f,1,0.3452279089251533,None,400.6214214960346,None,,,,,sophie,1,2,2020_Oct_30_1935,configural_featural,2020.2.4,None,
feat_face,Designs/instructions_face_1234.png,,,,,0,2,2,2,32,0,32,0,,,,,,,,,,,,,,,,,,,,,,,,,,,,,,,,,,,,,,,,,,,,,,,,,,,,,,,,,,,0,-0.17295000000000002,1.0,Stimuli/f131.png,Stimuli/f131.png,None,None,None,f,1,0.40764481702353805,None,401.68810841301456,None,,,,,sophie,1,2,2020_Oct_30_1935,configural_featural,2020.2.4,None,
feat_face,Designs/instructions_face_1234.png,,,,,0,2,2,2,33,0,33,0,,,,,,,,,,,,,,,,,,,,,,,,,,,,,,,,,,,,,,,,,,,,,,,,,,,,,,,,,,,1,0.17295000000000002,0.0,Stimuli/f142.png,Stimuli/f24.png,None,None,None,j,1,0.3334380940068513,None,402.8216268690303,None,,,,,sophie,1,2,2020_Oct_30_1935,configural_featural,2020.2.4,None,
feat_face,Designs/instructions_face_1234.png,,,,,0,2,2,2,34,0,34,0,,,,,,,,,,,,,,,,,,,,,,,,,,,,,,,,,,,,,,,,,,,,,,,,,,,,,,,,,,,0,-0.17295000000000002,1.0,Stimuli/f15.png,Stimuli/f15.png,None,None,None,j,0,0.291494686040096,None,403.88802458602004,None,,,,,sophie,1,2,2020_Oct_30_1935,configural_featural,2020.2.4,None,
feat_face,Designs/instructions_face_1234.png,,,,,0,2,2,2,35,0,35,0,,,,,,,,,,,,,,,,,,,,,,,,,,,,,,,,,,,,,,,,,,,,,,,,,,,,,,,,,,,1,0.17295000000000002,0.0,Stimuli/f131.png,Stimuli/f15.png,None,None,None,j,1,0.367310770903714,None,404.9048772059614,None,,,,,sophie,1,2,2020_Oct_30_1935,configural_featural,2020.2.4,None,
feat_face,Designs/instructions_face_1234.png,,,,,0,2,2,2,36,0,36,0,,,,,,,,,,,,,,,,,,,,,,,,,,,,,,,,,,,,,,,,,,,,,,,,,,,,,,,,,,,0,-0.17295000000000002,0.0,Stimuli/f142.png,Stimuli/f131.png,None,None,None,j,1,0.2688497540075332,None,406.0046957070008,None,,,,,sophie,1,2,2020_Oct_30_1935,configural_featural,2020.2.4,None,
feat_face,Designs/instructions_face_1234.png,,,,,0,2,2,2,37,0,37,0,,,,,,,,,,,,,,,,,,,,,,,,,,,,,,,,,,,,,,,,,,,,,,,,,,,,,,,,,,,0,-0.17295000000000002,1.0,Stimuli/f142.png,Stimuli/f142.png,None,None,None,f,1,0.3306097890017554,None,407.00488753593527,None,,,,,sophie,1,2,2020_Oct_30_1935,configural_featural,2020.2.4,None,
feat_face,Designs/instructions_face_1234.png,,,,,0,2,2,2,38,0,38,0,,,,,,,,,,,,,,,,,,,,,,,,,,,,,,,,,,,,,,,,,,,,,,,,,,,,,,,,,,,0,0.17295000000000002,0.0,Stimuli/f15.png,Stimuli/f131.png,None,None,None,j,1,0.37402074900455773,None,408.0550957940286,None,,,,,sophie,1,2,2020_Oct_30_1935,configural_featural,2020.2.4,None,
feat_face,Designs/instructions_face_1234.png,,,,,0,2,2,2,39,0,39,0,,,,,,,,,,,,,,,,,,,,,,,,,,,,,,,,,,,,,,,,,,,,,,,,,,,,,,,,,,,0,-0.17295000000000002,1.0,Stimuli/f131.png,Stimuli/f131.png,None,None,None,j,0,0.566582557046786,None,409.15511471393984,None,,,,,sophie,1,2,2020_Oct_30_1935,configural_featural,2020.2.4,None,
feat_face,Designs/instructions_face_1234.png,,,,,0,2,2,2,40,0,40,0,,,,,,,,,,,,,,,,,,,,,,,,,,,,,,,,,,,,,,,,,,,,,,,,,,,,,,,,,,,0,0.17295000000000002,0.0,Stimuli/f142.png,Stimuli/f15.png,None,None,None,j,1,0.3167245350778103,None,410.44110535201617,None,,,,,sophie,1,2,2020_Oct_30_1935,configural_featural,2020.2.4,None,
feat_face,Designs/instructions_face_1234.png,,,,,0,2,2,2,41,0,41,0,,,,,,,,,,,,,,,,,,,,,,,,,,,,,,,,,,,,,,,,,,,,,,,,,,,,,,,,,,,0,0.17295000000000002,1.0,Stimuli/f131.png,Stimuli/f131.png,None,None,None,f,1,0.49521165003534406,None,411.50780714303255,None,,,,,sophie,1,2,2020_Oct_30_1935,configural_featural,2020.2.4,None,
feat_face,Designs/instructions_face_1234.png,,,,,0,2,2,2,42,0,42,0,,,,,,,,,,,,,,,,,,,,,,,,,,,,,,,,,,,,,,,,,,,,,,,,,,,,,,,,,,,1,-0.17295000000000002,0.0,Stimuli/f131.png,Stimuli/f24.png,None,None,None,f,0,0.37881170597393066,None,412.7215769189643,None,,,,,sophie,1,2,2020_Oct_30_1935,configural_featural,2020.2.4,None,
feat_face,Designs/instructions_face_1234.png,,,,,0,2,2,2,43,0,43,0,,,,,,,,,,,,,,,,,,,,,,,,,,,,,,,,,,,,,,,,,,,,,,,,,,,,,,,,,,,0,-0.17295000000000002,1.0,Stimuli/f24.png,Stimuli/f24.png,None,None,None,j,0,0.4300765640800819,None,413.83838029403705,None,,,,,sophie,1,2,2020_Oct_30_1935,configural_featural,2020.2.4,None,
feat_face,Designs/instructions_face_1234.png,,,,,0,2,2,2,44,0,44,0,,,,,,,,,,,,,,,,,,,,,,,,,,,,,,,,,,,,,,,,,,,,,,,,,,,,,,,,,,,0,-0.17295000000000002,0.0,Stimuli/f24.png,Stimuli/f15.png,None,None,None,j,1,0.48477532796096057,None,414.98828024603426,None,,,,,sophie,1,2,2020_Oct_30_1935,configural_featural,2020.2.4,None,
feat_face,Designs/instructions_face_1234.png,,,,,0,2,2,2,45,0,45,0,,,,,,,,,,,,,,,,,,,,,,,,,,,,,,,,,,,,,,,,,,,,,,,,,,,,,,,,,,,0,0.17295000000000002,1.0,Stimuli/f24.png,Stimuli/f24.png,None,None,None,j,0,0.6627771289786324,None,416.22180396097247,None,,,,,sophie,1,2,2020_Oct_30_1935,configural_featural,2020.2.4,None,
feat_face,Designs/instructions_face_1234.png,,,,,0,2,2,2,46,0,46,0,,,,,,,,,,,,,,,,,,,,,,,,,,,,,,,,,,,,,,,,,,,,,,,,,,,,,,,,,,,0,0.17295000000000002,0.0,Stimuli/f142.png,Stimuli/f131.png,None,None,None,j,1,0.4589020679704845,None,417.62175692094024,None,,,,,sophie,1,2,2020_Oct_30_1935,configural_featural,2020.2.4,None,
feat_face,Designs/instructions_face_1234.png,,,,,0,2,2,2,47,0,47,0,,,,,,,,,,,,,,,,,,,,,,,,,,,,,,,,,,,,,,,,,,,,,,,,,,,,,,,,,,,0,0.17295000000000002,1.0,Stimuli/f15.png,Stimuli/f15.png,None,None,None,f,1,0.28732790099456906,None,418.80751179601066,None,,,,,sophie,1,2,2020_Oct_30_1935,configural_featural,2020.2.4,None,
feat_haus,Designs/instructions_haus_1234.png,,,,,0,3,3,3,0,0,0,0,,,,,,,,,,,,,,,,,,,,,,,,,,,,,,,,,,,,,,,,,,,,,,,,,,,,,,,,,,,0,0.17295000000000002,1.0,Stimuli/H8sim0.png,Stimuli/H8sim0.png,None,None,None,f,1,1.7743199409451336,None,423.7885212149704,None,,,,,sophie,1,2,2020_Oct_30_1935,configural_featural,2020.2.4,None,
feat_haus,Designs/instructions_haus_1234.png,,,,,0,3,3,3,1,0,1,0,,,,,,,,,,,,,,,,,,,,,,,,,,,,,,,,,,,,,,,,,,,,,,,,,,,,,,,,,,,0,-0.17295000000000002,1.0,Stimuli/H6sim0.png,Stimuli/H6sim0.png,None,None,None,f,1,0.29537514701951295,None,426.2912092850311,None,,,,,sophie,1,2,2020_Oct_30_1935,configural_featural,2020.2.4,None,
feat_haus,Designs/instructions_haus_1234.png,,,,,0,3,3,3,2,0,2,0,,,,,,,,,,,,,,,,,,,,,,,,,,,,,,,,,,,,,,,,,,,,,,,,,,,,,,,,,,,0,0.17295000000000002,0.0,Stimuli/H8sim0.png,Stimuli/H7sim0.png,None,None,None,j,1,0.47304094198625535,None,427.3051394739887,None,,,,,sophie,1,2,2020_Oct_30_1935,configural_featural,2020.2.4,None,
feat_haus,Designs/instructions_haus_1234.png,,,,,0,3,3,3,3,0,3,0,,,,,,,,,,,,,,,,,,,,,,,,,,,,,,,,,,,,,,,,,,,,,,,,,,,,,,,,,,,0,0.17295000000000002,1.0,Stimuli/H7sim0.png,Stimuli/H7sim0.png,None,None,None,j,0,0.3704596800962463,None,428.50489379896317,None,,,,,sophie,1,2,2020_Oct_30_1935,configural_featural,2020.2.4,None,
feat_haus,Designs/instructions_haus_1234.png,,,,,0,3,3,3,4,0,4,0,,,,,,,,,,,,,,,,,,,,,,,,,,,,,,,,,,,,,,,,,,,,,,,,,,,,,,,,,,,0,-0.17295000000000002,0.0,Stimuli/H6sim0.png,Stimuli/H8sim0.png,None,None,None,j,1,0.4774258389370516,None,429.6050631219987,None,,,,,sophie,1,2,2020_Oct_30_1935,configural_featural,2020.2.4,None,
feat_haus,Designs/instructions_haus_1234.png,,,,,0,3,3,3,5,0,5,0,,,,,,,,,,,,,,,,,,,,,,,,,,,,,,,,,,,,,,,,,,,,,,,,,,,,,,,,,,,0,0.17295000000000002,0.0,Stimuli/H7sim0.png,Stimuli/H5sim0.png,None,None,None,j,1,0.25839189102407545,None,430.82161595101934,None,,,,,sophie,1,2,2020_Oct_30_1935,configural_featural,2020.2.4,None,
feat_haus,Designs/instructions_haus_1234.png,,,,,0,3,3,3,6,0,6,0,,,,,,,,,,,,,,,,,,,,,,,,,,,,,,,,,,,,,,,,,,,,,,,,,,,,,,,,,,,0,-0.17295000000000002,1.0,Stimuli/H8sim0.png,Stimuli/H8sim0.png,None,None,None,f,1,0.29301693895831704,None,431.82388592895586,None,,,,,sophie,1,2,2020_Oct_30_1935,configural_featural,2020.2.4,None,
feat_haus,Designs/instructions_haus_1234.png,,,,,0,3,3,3,7,0,7,0,,,,,,,,,,,,,,,,,,,,,,,,,,,,,,,,,,,,,,,,,,,,,,,,,,,,,,,,,,,0,0.17295000000000002,1.0,Stimuli/H6sim0.png,Stimuli/H6sim0.png,None,None,None,f,1,0.3436616261024028,None,432.8386390929809,None,,,,,sophie,1,2,2020_Oct_30_1935,configural_featural,2020.2.4,None,
feat_haus,Designs/instructions_haus_1234.png,,,,,0,3,3,3,8,0,8,0,,,,,,,,,,,,,,,,,,,,,,,,,,,,,,,,,,,,,,,,,,,,,,,,,,,,,,,,,,,1,-0.17295000000000002,0.0,Stimuli/H5sim0.png,Stimuli/H8sim0.png,None,None,None,f,0,0.8596176080172881,space,433.90532441600226,None,0.055866012000478804,,,,sophie,1,2,2020_Oct_30_1935,configural_featural,2020.2.4,None,
feat_haus,Designs/instructions_haus_1234.png,,,,,0,3,3,3,9,0,9,0,,,,,,,,,,,,,,,,,,,,,,,,,,,,,,,,,,,,,,,,,,,,,,,,,,,,,,,,,,,0,-0.17295000000000002,1.0,Stimuli/H5sim0.png,Stimuli/H5sim0.png,None,None,None,f,1,0.3208716760855168,None,435.4886156099383,None,,,,,sophie,1,2,2020_Oct_30_1935,configural_featural,2020.2.4,None,
feat_haus,Designs/instructions_haus_1234.png,,,,,0,3,3,3,10,0,10,0,,,,,,,,,,,,,,,,,,,,,,,,,,,,,,,,,,,,,,,,,,,,,,,,,,,,,,,,,,,0,-0.17295000000000002,0.0,Stimuli/H7sim0.png,Stimuli/H5sim0.png,None,None,None,j,1,0.5216311550466344,None,436.5385258999886,None,,,,,sophie,1,2,2020_Oct_30_1935,configural_featural,2020.2.4,None,
feat_haus,Designs/instructions_haus_1234.png,,,,,0,3,3,3,11,0,11,0,,,,,,,,,,,,,,,,,,,,,,,,,,,,,,,,,,,,,,,,,,,,,,,,,,,,,,,,,,,0,-0.17295000000000002,0.0,Stimuli/H5sim0.png,Stimuli/H6sim0.png,None,None,None,j,1,0.4188478511059657,None,437.79133985203225,None,,,,,sophie,1,2,2020_Oct_30_1935,configural_featural,2020.2.4,None,
feat_haus,Designs/instructions_haus_1234.png,,,,,0,3,3,3,12,0,12,0,,,,,,,,,,,,,,,,,,,,,,,,,,,,,,,,,,,,,,,,,,,,,,,,,,,,,,,,,,,0,-0.17295000000000002,1.0,Stimuli/H7sim0.png,Stimuli/H7sim0.png,None,None,None,f,1,0.4270080829737708,None,438.9413015380269,None,,,,,sophie,1,2,2020_Oct_30_1935,configural_featural,2020.2.4,None,
feat_haus,Designs/instructions_haus_1234.png,,,,,0,3,3,3,13,0,13,0,,,,,,,,,,,,,,,,,,,,,,,,,,,,,,,,,,,,,,,,,,,,,,,,,,,,,,,,,,,1,-0.17295000000000002,0.0,Stimuli/H8sim0.png,Stimuli/H7sim0.png,None,None,None,j,1,0.3956408379599452,None,440.0886274910299,None,,,,,sophie,1,2,2020_Oct_30_1935,configural_featural,2020.2.4,None,
feat_haus,Designs/instructions_haus_1234.png,,,,,0,3,3,3,14,0,14,0,,,,,,,,,,,,,,,,,,,,,,,,,,,,,,,,,,,,,,,,,,,,,,,,,,,,,,,,,,,0,-0.17295000000000002,0.0,Stimuli/H6sim0.png,Stimuli/H5sim0.png,None,None,None,j,1,0.432818784029223,None,441.2050988529809,None,,,,,sophie,1,2,2020_Oct_30_1935,configural_featural,2020.2.4,None,
feat_haus,Designs/instructions_haus_1234.png,,,,,0,3,3,3,15,0,15,0,,,,,,,,,,,,,,,,,,,,,,,,,,,,,,,,,,,,,,,,,,,,,,,,,,,,,,,,,,,0,-0.17295000000000002,1.0,Stimuli/H8sim0.png,Stimuli/H8sim0.png,None,None,None,j,0,0.39328815997578204,None,442.37201425794046,None,,,,,sophie,1,2,2020_Oct_30_1935,configural_featural,2020.2.4,None,
feat_haus,Designs/instructions_haus_1234.png,,,,,0,3,3,3,16,0,16,0,,,,,,,,,,,,,,,,,,,,,,,,,,,,,,,,,,,,,,,,,,,,,,,,,,,,,,,,,,,0,0.17295000000000002,0.0,Stimuli/H5sim0.png,Stimuli/H6sim0.png,None,None,None,f,0,0.8380374410189688,None,443.48867017100565,None,,,,,sophie,1,2,2020_Oct_30_1935,configural_featural,2020.2.4,None,
feat_haus,Designs/instructions_haus_1234.png,,,,,0,3,3,3,17,0,17,0,,,,,,,,,,,,,,,,,,,,,,,,,,,,,,,,,,,,,,,,,,,,,,,,,,,,,,,,,,,1,0.17295000000000002,1.0,Stimuli/H5sim0.png,Stimuli/H5sim0.png,None,None,None,j,0,0.6666802020044997,None,445.05511921003927,None,,,,,sophie,1,2,2020_Oct_30_1935,configural_featural,2020.2.4,None,
feat_haus,Designs/instructions_haus_1234.png,,,,,0,3,3,3,18,0,18,0,,,,,,,,,,,,,,,,,,,,,,,,,,,,,,,,,,,,,,,,,,,,,,,,,,,,,,,,,,,0,-0.17295000000000002,1.0,Stimuli/H7sim0.png,Stimuli/H7sim0.png,None,None,None,f,1,0.5416952519444749,None,446.44130502000917,None,,,,,sophie,1,2,2020_Oct_30_1935,configural_featural,2020.2.4,None,
feat_haus,Designs/instructions_haus_1234.png,,,,,0,3,3,3,19,0,19,0,,,,,,,,,,,,,,,,,,,,,,,,,,,,,,,,,,,,,,,,,,,,,,,,,,,,,,,,,,,0,0.17295000000000002,1.0,Stimuli/H5sim0.png,Stimuli/H5sim0.png,None,None,None,f,1,0.20205093501135707,None,447.7052466169698,None,,,,,sophie,1,2,2020_Oct_30_1935,configural_featural,2020.2.4,None,
feat_haus,Designs/instructions_haus_1234.png,,,,,0,3,3,3,20,0,20,0,,,,,,,,,,,,,,,,,,,,,,,,,,,,,,,,,,,,,,,,,,,,,,,,,,,,,,,,,,,0,0.17295000000000002,0.0,Stimuli/H7sim0.png,Stimuli/H8sim0.png,None,None,None,j,1,0.3386370139196515,None,448.65537627297454,None,,,,,sophie,1,2,2020_Oct_30_1935,configural_featural,2020.2.4,None,
feat_haus,Designs/instructions_haus_1234.png,,,,,0,3,3,3,21,0,21,0,,,,,,,,,,,,,,,,,,,,,,,,,,,,,,,,,,,,,,,,,,,,,,,,,,,,,,,,,,,0,0.17295000000000002,0.0,Stimuli/H6sim0.png,Stimuli/H8sim0.png,None,None,None,j,1,0.3460502519737929,None,449.72204292495735,None,,,,,sophie,1,2,2020_Oct_30_1935,configural_featural,2020.2.4,None,
feat_haus,Designs/instructions_haus_1234.png,,,,,0,3,3,3,22,0,22,0,,,,,,,,,,,,,,,,,,,,,,,,,,,,,,,,,,,,,,,,,,,,,,,,,,,,,,,,,,,1,-0.17295000000000002,1.0,Stimuli/H5sim0.png,Stimuli/H5sim0.png,None,None,None,f,1,0.30970383307430893,None,450.7887384799542,None,,,,,sophie,1,2,2020_Oct_30_1935,configural_featural,2020.2.4,None,
feat_haus,Designs/instructions_haus_1234.png,,,,,0,3,3,3,23,0,23,0,,,,,,,,,,,,,,,,,,,,,,,,,,,,,,,,,,,,,,,,,,,,,,,,,,,,,,,,,,,0,-0.17295000000000002,0.0,Stimuli/H6sim0.png,Stimuli/H7sim0.png,None,None,None,j,1,0.5164090399630368,None,451.8245567859849,None,,,,,sophie,1,2,2020_Oct_30_1935,configural_featural,2020.2.4,None,
feat_haus,Designs/instructions_haus_1234.png,,,,,0,3,3,3,24,0,24,0,,,,,,,,,,,,,,,,,,,,,,,,,,,,,,,,,,,,,,,,,,,,,,,,,,,,,,,,,,,0,-0.17295000000000002,0.0,Stimuli/H8sim0.png,Stimuli/H5sim0.png,None,None,None,j,1,0.5304028890095651,None,453.0746050319867,None,,,,,sophie,1,2,2020_Oct_30_1935,configural_featural,2020.2.4,None,
feat_haus,Designs/instructions_haus_1234.png,,,,,0,3,3,3,25,0,25,0,,,,,,,,,,,,,,,,,,,,,,,,,,,,,,,,,,,,,,,,,,,,,,,,,,,,,,,,,,,0,0.17295000000000002,0.0,Stimuli/H5sim0.png,Stimuli/H7sim0.png,None,None,None,j,1,0.4115087309619412,None,454.32209228596184,None,,,,,sophie,1,2,2020_Oct_30_1935,configural_featural,2020.2.4,None,
feat_haus,Designs/instructions_haus_1234.png,,,,,0,3,3,3,26,0,26,0,,,,,,,,,,,,,,,,,,,,,,,,,,,,,,,,,,,,,,,,,,,,,,,,,,,,,,,,,,,0,0.17295000000000002,1.0,Stimuli/H8sim0.png,Stimuli/H8sim0.png,None,None,None,f,1,0.17605422693304718,None,455.458069366985,None,,,,,sophie,1,2,2020_Oct_30_1935,configural_featural,2020.2.4,None,
feat_haus,Designs/instructions_haus_1234.png,,,,,0,3,3,3,27,0,27,0,,,,,,,,,,,,,,,,,,,,,,,,,,,,,,,,,,,,,,,,,,,,,,,,,,,,,,,,,,,0,-0.17295000000000002,1.0,Stimuli/H6sim0.png,Stimuli/H6sim0.png,None,None,None,f,1,0.24474983604159206,None,456.3576026420342,None,,,,,sophie,1,2,2020_Oct_30_1935,configural_featural,2020.2.4,None,
feat_haus,Designs/instructions_haus_1234.png,,,,,0,3,3,3,28,0,28,0,,,,,,,,,,,,,,,,,,,,,,,,,,,,,,,,,,,,,,,,,,,,,,,,,,,,,,,,,,,0,0.17295000000000002,0.0,Stimuli/H7sim0.png,Stimuli/H6sim0.png,None,None,None,j,1,0.5222852149745449,None,457.32211806997657,None,,,,,sophie,1,2,2020_Oct_30_1935,configural_featural,2020.2.4,None,
feat_haus,Designs/instructions_haus_1234.png,,,,,0,3,3,3,29,0,29,0,,,,,,,,,,,,,,,,,,,,,,,,,,,,,,,,,,,,,,,,,,,,,,,,,,,,,,,,,,,0,0.17295000000000002,1.0,Stimuli/H6sim0.png,Stimuli/H6sim0.png,None,None,None,f,1,0.44746493303682655,None,458.5722623959882,None,,,,,sophie,1,2,2020_Oct_30_1935,configural_featural,2020.2.4,None,
feat_haus,Designs/instructions_haus_1234.png,,,,,0,3,3,3,30,0,30,0,,,,,,,,,,,,,,,,,,,,,,,,,,,,,,,,,,,,,,,,,,,,,,,,,,,,,,,,,,,0,0.17295000000000002,0.0,Stimuli/H6sim0.png,Stimuli/H5sim0.png,None,None,None,j,1,0.5200781719759107,None,459.7387947109528,None,,,,,sophie,1,2,2020_Oct_30_1935,configural_featural,2020.2.4,None,
feat_haus,Designs/instructions_haus_1234.png,,,,,0,3,3,3,31,0,31,0,,,,,,,,,,,,,,,,,,,,,,,,,,,,,,,,,,,,,,,,,,,,,,,,,,,,,,,,,,,0,-0.17295000000000002,1.0,Stimuli/H8sim0.png,Stimuli/H8sim0.png,None,None,None,j,0,0.2624892779858783,None,460.9888881830266,None,,,,,sophie,1,2,2020_Oct_30_1935,configural_featural,2020.2.4,None,
feat_haus,Designs/instructions_haus_1234.png,,,,,0,3,3,3,32,0,32,0,,,,,,,,,,,,,,,,,,,,,,,,,,,,,,,,,,,,,,,,,,,,,,,,,,,,,,,,,,,0,-0.17295000000000002,0.0,Stimuli/H7sim0.png,Stimuli/H8sim0.png,None,None,None,j,1,0.4424947230145335,None,461.9722146790009,None,,,,,sophie,1,2,2020_Oct_30_1935,configural_featural,2020.2.4,None,
feat_haus,Designs/instructions_haus_1234.png,,,,,0,3,3,3,33,0,33,0,,,,,,,,,,,,,,,,,,,,,,,,,,,,,,,,,,,,,,,,,,,,,,,,,,,,,,,,,,,0,-0.17295000000000002,1.0,Stimuli/H7sim0.png,Stimuli/H7sim0.png,None,None,None,f,1,0.34453866200055927,None,463.1389040669892,None,,,,,sophie,1,2,2020_Oct_30_1935,configural_featural,2020.2.4,None,
feat_haus,Designs/instructions_haus_1234.png,,,,,0,3,3,3,34,0,34,0,,,,,,,,,,,,,,,,,,,,,,,,,,,,,,,,,,,,,,,,,,,,,,,,,,,,,,,,,,,0,0.17295000000000002,1.0,Stimuli/H7sim0.png,Stimuli/H7sim0.png,None,None,None,f,1,0.30000288190785795,None,464.20796059200075,None,,,,,sophie,1,2,2020_Oct_30_1935,configural_featural,2020.2.4,None,
feat_haus,Designs/instructions_haus_1234.png,,,,,0,3,3,3,35,0,35,0,,,,,,,,,,,,,,,,,,,,,,,,,,,,,,,,,,,,,,,,,,,,,,,,,,,,,,,,,,,0,0.17295000000000002,0.0,Stimuli/H6sim0.png,Stimuli/H7sim0.png,None,None,None,j,1,0.4966220080386847,None,465.2389352869941,None,,,,,sophie,1,2,2020_Oct_30_1935,configural_featural,2020.2.4,None,
feat_haus,Designs/instructions_haus_1234.png,,,,,0,3,3,3,36,0,36,0,,,,,,,,,,,,,,,,,,,,,,,,,,,,,,,,,,,,,,,,,,,,,,,,,,,,,,,,,,,0,-0.17295000000000002,0.0,Stimuli/H8sim0.png,Stimuli/H6sim0.png,None,None,None,j,1,0.5233828009804711,None,466.4556159309577,None,,,,,sophie,1,2,2020_Oct_30_1935,configural_featural,2020.2.4,None,
feat_haus,Designs/instructions_haus_1234.png,,,,,0,3,3,3,37,0,37,0,,,,,,,,,,,,,,,,,,,,,,,,,,,,,,,,,,,,,,,,,,,,,,,,,,,,,,,,,,,0,-0.17295000000000002,0.0,Stimuli/H5sim0.png,Stimuli/H7sim0.png,None,None,None,j,1,0.26511047303210944,None,467.70543901703786,None,,,,,sophie,1,2,2020_Oct_30_1935,configural_featural,2020.2.4,None,
feat_haus,Designs/instructions_haus_1234.png,,,,,0,3,3,3,38,0,38,0,,,,,,,,,,,,,,,,,,,,,,,,,,,,,,,,,,,,,,,,,,,,,,,,,,,,,,,,,,,0,0.17295000000000002,0.0,Stimuli/H5sim0.png,Stimuli/H8sim0.png,None,None,None,j,1,0.3868251369567588,None,468.6888650880428,None,,,,,sophie,1,2,2020_Oct_30_1935,configural_featural,2020.2.4,None,
feat_haus,Designs/instructions_haus_1234.png,,,,,0,3,3,3,39,0,39,0,,,,,,,,,,,,,,,,,,,,,,,,,,,,,,,,,,,,,,,,,,,,,,,,,,,,,,,,,,,1,0.17295000000000002,1.0,Stimuli/H7sim0.png,Stimuli/H7sim0.png,None,None,None,f,1,0.3324765700381249,None,469.8080682680011,None,,,,,sophie,1,2,2020_Oct_30_1935,configural_featural,2020.2.4,None,
feat_haus,Designs/instructions_haus_1234.png,,,,,0,3,3,3,40,0,40,0,,,,,,,,,,,,,,,,,,,,,,,,,,,,,,,,,,,,,,,,,,,,,,,,,,,,,,,,,,,0,0.17295000000000002,1.0,Stimuli/H8sim0.png,Stimuli/H8sim0.png,None,None,None,f,1,0.23918382299598306,None,470.8556401010137,None,,,,,sophie,1,2,2020_Oct_30_1935,configural_featural,2020.2.4,None,
feat_haus,Designs/instructions_haus_1234.png,,,,,0,3,3,3,41,0,41,0,,,,,,,,,,,,,,,,,,,,,,,,,,,,,,,,,,,,,,,,,,,,,,,,,,,,,,,,,,,0,0.17295000000000002,1.0,Stimuli/H6sim0.png,Stimuli/H6sim0.png,None,None,None,f,1,0.22543854906689376,None,471.82226942898706,None,,,,,sophie,1,2,2020_Oct_30_1935,configural_featural,2020.2.4,None,
feat_haus,Designs/instructions_haus_1234.png,,,,,0,3,3,3,42,0,42,0,,,,,,,,,,,,,,,,,,,,,,,,,,,,,,,,,,,,,,,,,,,,,,,,,,,,,,,,,,,1,0.17295000000000002,1.0,Stimuli/H5sim0.png,Stimuli/H5sim0.png,None,None,None,j,0,0.32248045201413333,None,472.7722682870226,None,,,,,sophie,1,2,2020_Oct_30_1935,configural_featural,2020.2.4,None,
feat_haus,Designs/instructions_haus_1234.png,,,,,0,3,3,3,43,0,43,0,,,,,,,,,,,,,,,,,,,,,,,,,,,,,,,,,,,,,,,,,,,,,,,,,,,,,,,,,,,0,0.17295000000000002,0.0,Stimuli/H8sim0.png,Stimuli/H6sim0.png,None,None,None,j,1,0.3912922549061477,None,473.8387392469449,None,,,,,sophie,1,2,2020_Oct_30_1935,configural_featural,2020.2.4,None,
feat_haus,Designs/instructions_haus_1234.png,,,,,0,3,3,3,44,0,44,0,,,,,,,,,,,,,,,,,,,,,,,,,,,,,,,,,,,,,,,,,,,,,,,,,,,,,,,,,,,0,-0.17295000000000002,1.0,Stimuli/H6sim0.png,Stimuli/H6sim0.png,None,None,None,f,1,0.3421332360012457,None,474.95557385799475,None,,,,,sophie,1,2,2020_Oct_30_1935,configural_featural,2020.2.4,None,
feat_haus,Designs/instructions_haus_1234.png,,,,,0,3,3,3,45,0,45,0,,,,,,,,,,,,,,,,,,,,,,,,,,,,,,,,,,,,,,,,,,,,,,,,,,,,,,,,,,,0,-0.17295000000000002,0.0,Stimuli/H7sim0.png,Stimuli/H6sim0.png,None,None,None,j,1,0.340505170985125,None,476.0411855180282,None,,,,,sophie,1,2,2020_Oct_30_1935,configural_featural,2020.2.4,None,
feat_haus,Designs/instructions_haus_1234.png,,,,,0,3,3,3,46,0,46,0,,,,,,,,,,,,,,,,,,,,,,,,,,,,,,,,,,,,,,,,,,,,,,,,,,,,,,,,,,,0,0.17295000000000002,0.0,Stimuli/H8sim0.png,Stimuli/H5sim0.png,None,None,None,f,0,0.7047876609722152,None,477.1055596709484,None,,,,,sophie,1,2,2020_Oct_30_1935,configural_featural,2020.2.4,None,
feat_haus,Designs/instructions_haus_1234.png,,,,,0,3,3,3,47,0,47,0,,,,,,,,,,,,,,,,,,,,,,,,,,,,,,,,,,,,,,,,,,,,,,,,,,,,,,,,,,,0,-0.17295000000000002,1.0,Stimuli/H5sim0.png,Stimuli/H5sim0.png,None,None,None,f,1,0.16704481199849397,None,478.5385540559655,None,,,,,sophie,1,2,2020_Oct_30_1935,configural_featural,2020.2.4,None,
conf_face,Designs/instructions_face_1234.png,,,,,1,0,4,0,0,0,0,0,,,,,,,,,,,,,,,,,,,,,,,,,,,,,,,,,,,,,,,,,,,,,,,,,,,,,,,,,,,0,0.17295000000000002,0.0,Stimuli/eimd.png,Stimuli/eomu.png,None,None,None,j,1,1.6380512070609257,None,482.57250153494533,None,,,,,sophie,1,2,2020_Oct_30_1935,configural_featural,2020.2.4,None,
conf_face,Designs/instructions_face_1234.png,,,,,1,0,4,0,1,0,1,0,,,,,,,,,,,,,,,,,,,,,,,,,,,,,,,,,,,,,,,,,,,,,,,,,,,,,,,,,,,0,-0.17295000000000002,1.0,Stimuli/eumu.png,Stimuli/eumu.png,None,None,None,j,0,0.35952518694102764,None,484.9390660029603,None,,,,,sophie,1,2,2020_Oct_30_1935,configural_featural,2020.2.4,None,
conf_face,Designs/instructions_face_1234.png,,,,,1,0,4,0,2,0,2,0,,,,,,,,,,,,,,,,,,,,,,,,,,,,,,,,,,,,,,,,,,,,,,,,,,,,,,,,,,,1,0.17295000000000002,1.0,Stimuli/eomu.png,Stimuli/eomu.png,None,None,space,f,1,0.6257797350408509,None,486.02218637801707,None,,0.1032704469980672,,,sophie,1,2,2020_Oct_30_1935,configural_featural,2020.2.4,None,
conf_face,Designs/instructions_face_1234.png,,,,,1,0,4,0,3,0,3,0,,,,,,,,,,,,,,,,,,,,,,,,,,,,,,,,,,,,,,,,,,,,,,,,,,,,,,,,,,,0,-0.17295000000000002,0.0,Stimuli/eomu.png,Stimuli/eumu.png,None,None,None,j,1,1.0337664230028167,None,487.37234185100533,None,,,,,sophie,1,2,2020_Oct_30_1935,configural_featural,2020.2.4,None,
conf_face,Designs/instructions_face_1234.png,,,,,1,0,4,0,4,0,4,0,,,,,,,,,,,,,,,,,,,,,,,,,,,,,,,,,,,,,,,,,,,,,,,,,,,,,,,,,,,0,0.17295000000000002,1.0,Stimuli/eimd.png,Stimuli/eimd.png,None,None,None,j,0,1.080973991076462,None,489.122303385986,None,,,,,sophie,1,2,2020_Oct_30_1935,configural_featural,2020.2.4,None,
conf_face,Designs/instructions_face_1234.png,,,,,1,0,4,0,5,0,5,0,,,,,,,,,,,,,,,,,,,,,,,,,,,,,,,,,,,,,,,,,,,,,,,,,,,,,,,,,,,1,-0.17295000000000002,0.0,Stimuli/eimd.png,Stimuli/edmd.png,None,None,None,j,1,0.5192631350364536,None,490.92224546393845,None,,,,,sophie,1,2,2020_Oct_30_1935,configural_featural,2020.2.4,None,
conf_face,Designs/instructions_face_1234.png,,,,,1,0,4,0,6,0,6,0,,,,,,,,,,,,,,,,,,,,,,,,,,,,,,,,,,,,,,,,,,,,,,,,,,,,,,,,,,,0,-0.17295000000000002,0.0,Stimuli/eomu.png,Stimuli/edmd.png,None,None,None,j,1,0.6984978379914537,None,492.1725733629428,None,,,,,sophie,1,2,2020_Oct_30_1935,configural_featural,2020.2.4,None,
conf_face,Designs/instructions_face_1234.png,,,,,1,0,4,0,7,0,7,0,,,,,,,,,,,,,,,,,,,,,,,,,,,,,,,,,,,,,,,,,,,,,,,,,,,,,,,,,,,0,-0.17295000000000002,0.0,Stimuli/edmd.png,Stimuli/eomu.png,None,None,None,j,1,8.542073057033122,None,493.58902199799195,None,,,,,sophie,1,2,2020_Oct_30_1935,configural_featural,2020.2.4,None,
conf_face,Designs/instructions_face_1234.png,,,,,1,0,4,0,8,0,8,0,,,,,,,,,,,,,,,,,,,,,,,,,,,,,,,,,,,,,,,,,,,,,,,,,,,,,,,,,,,0,0.17295000000000002,1.0,Stimuli/edmd.png,Stimuli/edmd.png,None,None,None,f,1,0.39235924603417516,None,502.858224845957,None,,,,,sophie,1,2,2020_Oct_30_1935,configural_featural,2020.2.4,None,
conf_face,Designs/instructions_face_1234.png,,,,,1,0,4,0,9,0,9,0,,,,,,,,,,,,,,,,,,,,,,,,,,,,,,,,,,,,,,,,,,,,,,,,,,,,,,,,,,,0,0.17295000000000002,1.0,Stimuli/eumu.png,Stimuli/eumu.png,None,None,None,j,0,12.162069982034154,None,503.97473007894587,None,,,,,sophie,1,2,2020_Oct_30_1935,configural_featural,2020.2.4,None,
conf_face,Designs/instructions_face_1234.png,,,,,1,0,4,0,10,0,10,0,,,,,,,,,,,,,,,,,,,,,,,,,,,,,,,,,,,,,,,,,,,,,,,,,,,,,,,,,,,1,-0.17295000000000002,0.0,Stimuli/eumu.png,Stimuli/eimd.png,None,None,None,f,0,0.42709328792989254,None,516.8557882009773,None,,,,,sophie,1,2,2020_Oct_30_1935,configural_featural,2020.2.4,None,
conf_face,Designs/instructions_face_1234.png,,,,,1,0,4,0,11,0,11,0,,,,,,,,,,,,,,,,,,,,,,,,,,,,,,,,,,,,,,,,,,,,,,,,,,,,,,,,,,,0,0.17295000000000002,1.0,Stimuli/edmd.png,Stimuli/edmd.png,None,None,None,f,1,0.22861523204483092,None,518.0084276760463,None,,,,,sophie,1,2,2020_Oct_30_1935,configural_featural,2020.2.4,None,
conf_face,Designs/instructions_face_1234.png,,,,,1,0,4,0,12,0,12,0,,,,,,,,,,,,,,,,,,,,,,,,,,,,,,,,,,,,,,,,,,,,,,,,,,,,,,,,,,,0,-0.17295000000000002,0.0,Stimuli/eimd.png,Stimuli/eomu.png,None,None,None,f,0,0.7104448380414397,None,518.9560409960104,None,,,,,sophie,1,2,2020_Oct_30_1935,configural_featural,2020.2.4,None,
conf_face,Designs/instructions_face_1234.png,,,,,1,0,4,0,13,0,13,0,,,,,,,,,,,,,,,,,,,,,,,,,,,,,,,,,,,,,,,,,,,,,,,,,,,,,,,,,,,0,0.17295000000000002,1.0,Stimuli/eomu.png,Stimuli/eomu.png,None,None,None,f,1,0.34617716004140675,None,520.4058373189764,None,,,,,sophie,1,2,2020_Oct_30_1935,configural_featural,2020.2.4,None,
conf_face,Designs/instructions_face_1234.png,,,,,1,0,4,0,14,0,14,0,,,,,,,,,,,,,,,,,,,,,,,,,,,,,,,,,,,,,,,,,,,,,,,,,,,,,,,,,,,0,0.17295000000000002,0.0,Stimuli/eomu.png,Stimuli/eumu.png,None,None,None,f,0,0.48541262501385063,None,521.4917149320245,None,,,,,sophie,1,2,2020_Oct_30_1935,configural_featural,2020.2.4,None,
conf_face,Designs/instructions_face_1234.png,,,,,1,0,4,0,15,0,15,0,,,,,,,,,,,,,,,,,,,,,,,,,,,,,,,,,,,,,,,,,,,,,,,,,,,,,,,,,,,1,0.17295000000000002,0.0,Stimuli/eimd.png,Stimuli/eumu.png,None,None,None,j,1,0.3630833199713379,None,522.7224872210063,None,,,,,sophie,1,2,2020_Oct_30_1935,configural_featural,2020.2.4,None,
conf_face,Designs/instructions_face_1234.png,,,,,1,0,4,0,16,0,16,0,,,,,,,,,,,,,,,,,,,,,,,,,,,,,,,,,,,,,,,,,,,,,,,,,,,,,,,,,,,0,-0.17295000000000002,1.0,Stimuli/eimd.png,Stimuli/eimd.png,None,None,None,j,0,0.4507913179695606,None,523.8058997089975,None,,,,,sophie,1,2,2020_Oct_30_1935,configural_featural,2020.2.4,None,
conf_face,Designs/instructions_face_1234.png,,,,,1,0,4,0,17,0,17,0,,,,,,,,,,,,,,,,,,,,,,,,,,,,,,,,,,,,,,,,,,,,,,,,,,,,,,,,,,,0,-0.17295000000000002,1.0,Stimuli/eomu.png,Stimuli/eomu.png,None,None,None,f,1,0.39157883101142943,None,524.9724177429453,None,,,,,sophie,1,2,2020_Oct_30_1935,configural_featural,2020.2.4,None,
conf_face,Designs/instructions_face_1234.png,,,,,1,0,4,0,18,0,18,0,,,,,,,,,,,,,,,,,,,,,,,,,,,,,,,,,,,,,,,,,,,,,,,,,,,,,,,,,,,0,-0.17295000000000002,1.0,Stimuli/edmd.png,Stimuli/edmd.png,None,None,None,f,1,0.2908080390188843,None,526.0891371000325,None,,,,,sophie,1,2,2020_Oct_30_1935,configural_featural,2020.2.4,None,
conf_face,Designs/instructions_face_1234.png,,,,,1,0,4,0,19,0,19,0,,,,,,,,,,,,,,,,,,,,,,,,,,,,,,,,,,,,,,,,,,,,,,,,,,,,,,,,,,,0,-0.17295000000000002,0.0,Stimuli/edmd.png,Stimuli/eumu.png,None,None,None,f,0,0.23347450303845108,None,527.105850270018,None,,,,,sophie,1,2,2020_Oct_30_1935,configural_featural,2020.2.4,None,
conf_face,Designs/instructions_face_1234.png,,,,,1,0,4,0,20,0,20,0,,,,,,,,,,,,,,,,,,,,,,,,,,,,,,,,,,,,,,,,,,,,,,,,,,,,,,,,,,,0,-0.17295000000000002,1.0,Stimuli/eumu.png,Stimuli/eumu.png,None,None,None,f,1,0.45888119004666805,None,528.0728074420476,None,,,,,sophie,1,2,2020_Oct_30_1935,configural_featural,2020.2.4,None,
conf_face,Designs/instructions_face_1234.png,,,,,1,0,4,0,21,0,21,0,,,,,,,,,,,,,,,,,,,,,,,,,,,,,,,,,,,,,,,,,,,,,,,,,,,,,,,,,,,1,0.17295000000000002,0.0,Stimuli/eumu.png,Stimuli/eomu.png,None,None,None,j,1,0.48079144104849547,None,529.2724213609472,None,,,,,sophie,1,2,2020_Oct_30_1935,configural_featural,2020.2.4,None,
conf_face,Designs/instructions_face_1234.png,,,,,1,0,4,0,22,0,22,0,,,,,,,,,,,,,,,,,,,,,,,,,,,,,,,,,,,,,,,,,,,,,,,,,,,,,,,,,,,0,-0.17295000000000002,1.0,Stimuli/eomu.png,Stimuli/eomu.png,None,None,None,j,0,0.35241996799595654,None,530.472749499022,None,,,,,sophie,1,2,2020_Oct_30_1935,configural_featural,2020.2.4,None,
conf_face,Designs/instructions_face_1234.png,,,,,1,0,4,0,23,0,23,0,,,,,,,,,,,,,,,,,,,,,,,,,,,,,,,,,,,,,,,,,,,,,,,,,,,,,,,,,,,0,0.17295000000000002,0.0,Stimuli/eimd.png,Stimuli/edmd.png,None,None,None,j,1,0.5106136800022796,None,531.5561439959565,None,,,,,sophie,1,2,2020_Oct_30_1935,configural_featural,2020.2.4,None,
conf_face,Designs/instructions_face_1234.png,,,,,1,0,4,0,24,0,24,0,,,,,,,,,,,,,,,,,,,,,,,,,,,,,,,,,,,,,,,,,,,,,,,,,,,,,,,,,,,0,0.17295000000000002,1.0,Stimuli/eumu.png,Stimuli/eumu.png,None,None,None,j,0,1.2553656940581277,None,532.7891782990191,None,,,,,sophie,1,2,2020_Oct_30_1935,configural_featural,2020.2.4,None,
conf_face,Designs/instructions_face_1234.png,,,,,1,0,4,0,25,0,25,0,,,,,,,,,,,,,,,,,,,,,,,,,,,,,,,,,,,,,,,,,,,,,,,,,,,,,,,,,,,0,0.17295000000000002,1.0,Stimuli/eimd.png,Stimuli/eimd.png,None,None,None,f,1,0.37868788896594197,None,534.7727589580463,None,,,,,sophie,1,2,2020_Oct_30_1935,configural_featural,2020.2.4,None,
conf_face,Designs/instructions_face_1234.png,,,,,1,0,4,0,26,0,26,0,,,,,,,,,,,,,,,,,,,,,,,,,,,,,,,,,,,,,,,,,,,,,,,,,,,,,,,,,,,0,0.17295000000000002,0.0,Stimuli/edmd.png,Stimuli/eumu.png,None,None,None,f,0,0.5572299890918657,None,535.8726426949725,None,,,,,sophie,1,2,2020_Oct_30_1935,configural_featural,2020.2.4,None,
conf_face,Designs/instructions_face_1234.png,,,,,1,0,4,0,27,0,27,0,,,,,,,,,,,,,,,,,,,,,,,,,,,,,,,,,,,,,,,,,,,,,,,,,,,,,,,,,,,0,-0.17295000000000002,0.0,Stimuli/eimd.png,Stimuli/eumu.png,None,None,None,f,0,0.43159907404333353,None,537.1560989919817,None,,,,,sophie,1,2,2020_Oct_30_1935,configural_featural,2020.2.4,None,
conf_face,Designs/instructions_face_1234.png,,,,,1,0,4,0,28,0,28,0,,,,,,,,,,,,,,,,,,,,,,,,,,,,,,,,,,,,,,,,,,,,,,,,,,,,,,,,,,,0,-0.17295000000000002,1.0,Stimuli/edmd.png,Stimuli/edmd.png,None,None,None,f,1,0.3858334650285542,None,538.3061408289941,None,,,,,sophie,1,2,2020_Oct_30_1935,configural_featural,2020.2.4,None,
conf_face,Designs/instructions_face_1234.png,,,,,1,0,4,0,29,0,29,0,,,,,,,,,,,,,,,,,,,,,,,,,,,,,,,,,,,,,,,,,,,,,,,,,,,,,,,,,,,0,0.17295000000000002,0.0,Stimuli/eumu.png,Stimuli/edmd.png,None,None,None,j,1,0.6404253160580993,None,539.438895520987,None,,,,,sophie,1,2,2020_Oct_30_1935,configural_featural,2020.2.4,None,
conf_face,Designs/instructions_face_1234.png,,,,,1,0,4,0,30,0,30,0,,,,,,,,,,,,,,,,,,,,,,,,,,,,,,,,,,,,,,,,,,,,,,,,,,,,,,,,,,,0,-0.17295000000000002,0.0,Stimuli/eumu.png,Stimuli/eomu.png,None,None,None,j,1,0.3333593509159982,None,540.8228061150294,None,,,,,sophie,1,2,2020_Oct_30_1935,configural_featural,2020.2.4,None,
conf_face,Designs/instructions_face_1234.png,,,,,1,0,4,0,31,0,31,0,,,,,,,,,,,,,,,,,,,,,,,,,,,,,,,,,,,,,,,,,,,,,,,,,,,,,,,,,,,0,0.17295000000000002,1.0,Stimuli/eomu.png,Stimuli/eomu.png,None,None,None,f,1,0.5089304009452462,None,541.889564592042,None,,,,,sophie,1,2,2020_Oct_30_1935,configural_featural,2020.2.4,None,
conf_face,Designs/instructions_face_1234.png,,,,,1,0,4,0,32,0,32,0,,,,,,,,,,,,,,,,,,,,,,,,,,,,,,,,,,,,,,,,,,,,,,,,,,,,,,,,,,,0,-0.17295000000000002,0.0,Stimuli/eomu.png,Stimuli/eimd.png,None,None,None,j,1,0.4694593669846654,None,543.1221544439904,None,,,,,sophie,1,2,2020_Oct_30_1935,configural_featural,2020.2.4,None,
conf_face,Designs/instructions_face_1234.png,,,,,1,0,4,0,33,0,33,0,,,,,,,,,,,,,,,,,,,,,,,,,,,,,,,,,,,,,,,,,,,,,,,,,,,,,,,,,,,0,0.17295000000000002,0.0,Stimuli/edmd.png,Stimuli/eimd.png,None,None,None,f,0,0.4069364150054753,None,544.339450821979,None,,,,,sophie,1,2,2020_Oct_30_1935,configural_featural,2020.2.4,None,
conf_face,Designs/instructions_face_1234.png,,,,,1,0,4,0,34,0,34,0,,,,,,,,,,,,,,,,,,,,,,,,,,,,,,,,,,,,,,,,,,,,,,,,,,,,,,,,,,,0,0.17295000000000002,1.0,Stimuli/eimd.png,Stimuli/eimd.png,None,None,None,f,1,0.16456438601016998,None,545.4919282470364,None,,,,,sophie,1,2,2020_Oct_30_1935,configural_featural,2020.2.4,None,
conf_face,Designs/instructions_face_1234.png,,,,,1,0,4,0,35,0,35,0,,,,,,,,,,,,,,,,,,,,,,,,,,,,,,,,,,,,,,,,,,,,,,,,,,,,,,,,,,,1,-0.17295000000000002,1.0,Stimuli/eimd.png,Stimuli/eimd.png,None,None,None,f,1,0.5545931220985949,None,546.3729097510222,None,,,,,sophie,1,2,2020_Oct_30_1935,configural_featural,2020.2.4,None,
conf_face,Designs/instructions_face_1234.png,,,,,1,0,4,0,36,0,36,0,,,,,,,,,,,,,,,,,,,,,,,,,,,,,,,,,,,,,,,,,,,,,,,,,,,,,,,,,,,0,-0.17295000000000002,0.0,Stimuli/edmd.png,Stimuli/eimd.png,None,None,None,f,0,0.3215379259781912,None,547.6562238569604,None,,,,,sophie,1,2,2020_Oct_30_1935,configural_featural,2020.2.4,None,
conf_face,Designs/instructions_face_1234.png,,,,,1,0,4,0,37,0,37,0,,,,,,,,,,,,,,,,,,,,,,,,,,,,,,,,,,,,,,,,,,,,,,,,,,,,,,,,,,,0,-0.17295000000000002,1.0,Stimuli/eumu.png,Stimuli/eumu.png,None,None,None,f,1,0.402010134072043,None,548.7227394889342,None,,,,,sophie,1,2,2020_Oct_30_1935,configural_featural,2020.2.4,None,
conf_face,Designs/instructions_face_1234.png,,,,,1,0,4,0,38,0,38,0,,,,,,,,,,,,,,,,,,,,,,,,,,,,,,,,,,,,,,,,,,,,,,,,,,,,,,,,,,,0,-0.17295000000000002,1.0,Stimuli/eomu.png,Stimuli/eomu.png,None,None,None,f,1,0.6447763219475746,None,549.8751656790264,None,,,,,sophie,1,2,2020_Oct_30_1935,configural_featural,2020.2.4,None,
conf_face,Designs/instructions_face_1234.png,,,,,1,0,4,0,39,0,39,0,,,,,,,,,,,,,,,,,,,,,,,,,,,,,,,,,,,,,,,,,,,,,,,,,,,,,,,,,,,0,-0.17295000000000002,1.0,Stimuli/edmd.png,Stimuli/edmd.png,None,None,None,f,1,0.2762964339926839,None,551.2395129749784,None,,,,,sophie,1,2,2020_Oct_30_1935,configural_featural,2020.2.4,None,
conf_face,Designs/instructions_face_1234.png,,,,,1,0,4,0,40,0,40,0,,,,,,,,,,,,,,,,,,,,,,,,,,,,,,,,,,,,,,,,,,,,,,,,,,,,,,,,,,,0,-0.17295000000000002,0.0,Stimuli/eumu.png,Stimuli/edmd.png,None,None,None,f,0,0.5819730029907078,None,552.2396346350433,None,,,,,sophie,1,2,2020_Oct_30_1935,configural_featural,2020.2.4,None,
conf_face,Designs/instructions_face_1234.png,,,,,1,0,4,0,41,0,41,0,,,,,,,,,,,,,,,,,,,,,,,,,,,,,,,,,,,,,,,,,,,,,,,,,,,,,,,,,,,0,0.17295000000000002,0.0,Stimuli/eumu.png,Stimuli/eimd.png,None,None,None,j,1,0.5596849559806287,None,553.539657079964,None,,,,,sophie,1,2,2020_Oct_30_1935,configural_featural,2020.2.4,None,
conf_face,Designs/instructions_face_1234.png,,,,,1,0,4,0,42,0,42,0,,,,,,,,,,,,,,,,,,,,,,,,,,,,,,,,,,,,,,,,,,,,,,,,,,,,,,,,,,,0,0.17295000000000002,1.0,Stimuli/eumu.png,Stimuli/eumu.png,None,None,None,f,1,0.9805266929324716,None,554.8229286069982,None,,,,,sophie,1,2,2020_Oct_30_1935,configural_featural,2020.2.4,None,
conf_face,Designs/instructions_face_1234.png,,,,,1,0,4,0,43,0,43,0,,,,,,,,,,,,,,,,,,,,,,,,,,,,,,,,,,,,,,,,,,,,,,,,,,,,,,,,,,,0,0.17295000000000002,0.0,Stimuli/eomu.png,Stimuli/eimd.png,None,None,None,j,1,0.5994548050221056,None,556.5230222620303,None,,,,,sophie,1,2,2020_Oct_30_1935,configural_featural,2020.2.4,None,
conf_face,Designs/instructions_face_1234.png,,,,,1,0,4,0,44,0,44,0,,,,,,,,,,,,,,,,,,,,,,,,,,,,,,,,,,,,,,,,,,,,,,,,,,,,,,,,,,,0,-0.17295000000000002,1.0,Stimuli/eimd.png,Stimuli/eimd.png,None,None,None,f,1,0.4458939569303766,None,557.8395612860331,None,,,,,sophie,1,2,2020_Oct_30_1935,configural_featural,2020.2.4,None,
conf_face,Designs/instructions_face_1234.png,,,,,1,0,4,0,45,0,45,0,,,,,,,,,,,,,,,,,,,,,,,,,,,,,,,,,,,,,,,,,,,,,,,,,,,,,,,,,,,0,0.17295000000000002,0.0,Stimuli/eomu.png,Stimuli/edmd.png,None,None,None,j,1,0.4358632849762216,None,559.0061711430317,None,,,,,sophie,1,2,2020_Oct_30_1935,configural_featural,2020.2.4,None,
conf_face,Designs/instructions_face_1234.png,,,,,1,0,4,0,46,0,46,0,,,,,,,,,,,,,,,,,,,,,,,,,,,,,,,,,,,,,,,,,,,,,,,,,,,,,,,,,,,0,0.17295000000000002,0.0,Stimuli/edmd.png,Stimuli/eomu.png,None,None,None,f,0,0.4727481600129977,None,560.1729506739648,None,,,,,sophie,1,2,2020_Oct_30_1935,configural_featural,2020.2.4,None,
conf_face,Designs/instructions_face_1234.png,,,,,1,0,4,0,47,0,47,0,,,,,,,,,,,,,,,,,,,,,,,,,,,,,,,,,,,,,,,,,,,,,,,,,,,,,,,,,,,0,0.17295000000000002,1.0,Stimuli/edmd.png,Stimuli/edmd.png,None,None,None,f,1,0.3707358499523252,None,561.3728395359358,None,,,,,sophie,1,2,2020_Oct_30_1935,configural_featural,2020.2.4,None,
conf_haus,Designs/instructions_haus_1234.png,,,,,1,1,5,1,0,0,0,0,,,,,,,,,,,,,,,,,,,,,,,,,,,,,,,,,,,,,,,,,,,,,,,,,,,,,,,,,,,0,-0.17295000000000002,0.0,Stimuli/H-8sim0.png,Stimuli/H-8sim1.png,None,None,None,j,1,0.4567737280158326,None,564.4897472279845,None,,,,,sophie,1,2,2020_Oct_30_1935,configural_featural,2020.2.4,None,
conf_haus,Designs/instructions_haus_1234.png,,,,,1,1,5,1,1,0,1,0,,,,,,,,,,,,,,,,,,,,,,,,,,,,,,,,,,,,,,,,,,,,,,,,,,,,,,,,,,,0,0.17295000000000002,1.0,Stimuli/H-8sim3.png,Stimuli/H-8sim3.png,None,None,None,f,1,0.47405791899655014,None,565.6730330060236,None,,,,,sophie,1,2,2020_Oct_30_1935,configural_featural,2020.2.4,None,
conf_haus,Designs/instructions_haus_1234.png,,,,,1,1,5,1,2,0,2,0,,,,,,,,,,,,,,,,,,,,,,,,,,,,,,,,,,,,,,,,,,,,,,,,,,,,,,,,,,,0,0.17295000000000002,1.0,Stimuli/H-8sim0.png,Stimuli/H-8sim0.png,None,None,None,f,1,0.5536500860471278,None,566.8730281209573,None,,,,,sophie,1,2,2020_Oct_30_1935,configural_featural,2020.2.4,None,
conf_haus,Designs/instructions_haus_1234.png,,,,,1,1,5,1,3,0,3,0,,,,,,,,,,,,,,,,,,,,,,,,,,,,,,,,,,,,,,,,,,,,,,,,,,,,,,,,,,,0,0.17295000000000002,0.0,Stimuli/H-8sim0.png,Stimuli/H-8sim3.png,None,None,None,j,1,0.34766963904257864,None,568.1563335949322,None,,,,,sophie,1,2,2020_Oct_30_1935,configural_featural,2020.2.4,None,
conf_haus,Designs/instructions_haus_1234.png,,,,,1,1,5,1,4,0,4,0,,,,,,,,,,,,,,,,,,,,,,,,,,,,,,,,,,,,,,,,,,,,,,,,,,,,,,,,,,,1,-0.17295000000000002,0.0,Stimuli/H-8sim3.png,Stimuli/H-8sim0.png,None,None,None,f,0,0.6396918690297753,space,569.2256097500212,None,0.012555471039377153,,,,sophie,1,2,2020_Oct_30_1935,configural_featural,2020.2.4,None,
conf_haus,Designs/instructions_haus_1234.png,,,,,1,1,5,1,5,0,5,0,,,,,,,,,,,,,,,,,,,,,,,,,,,,,,,,,,,,,,,,,,,,,,,,,,,,,,,,,,,0,-0.17295000000000002,1.0,Stimuli/H-8sim3.png,Stimuli/H-8sim3.png,None,None,None,f,1,0.33271508396137506,None,570.5898048579693,None,,,,,sophie,1,2,2020_Oct_30_1935,configural_featural,2020.2.4,None,
conf_haus,Designs/instructions_haus_1234.png,,,,,1,1,5,1,6,0,6,0,,,,,,,,,,,,,,,,,,,,,,,,,,,,,,,,,,,,,,,,,,,,,,,,,,,,,,,,,,,0,0.17295000000000002,0.0,Stimuli/H-8sim1.png,Stimuli/H-8sim2.png,None,None,None,j,1,0.6466736890142784,None,571.6397620360367,None,,,,,sophie,1,2,2020_Oct_30_1935,configural_featural,2020.2.4,None,
conf_haus,Designs/instructions_haus_1234.png,,,,,1,1,5,1,7,0,7,0,,,,,,,,,,,,,,,,,,,,,,,,,,,,,,,,,,,,,,,,,,,,,,,,,,,,,,,,,,,0,0.17295000000000002,1.0,Stimuli/H-8sim1.png,Stimuli/H-8sim1.png,None,None,None,j,0,0.8783210270339623,None,573.006109528942,None,,,,,sophie,1,2,2020_Oct_30_1935,configural_featural,2020.2.4,None,
conf_haus,Designs/instructions_haus_1234.png,,,,,1,1,5,1,8,0,8,0,,,,,,,,,,,,,,,,,,,,,,,,,,,,,,,,,,,,,,,,,,,,,,,,,,,,,,,,,,,0,-0.17295000000000002,0.0,Stimuli/H-8sim3.png,Stimuli/H-8sim2.png,None,None,None,j,1,0.43802648305427283,None,574.606358491932,None,,,,,sophie,1,2,2020_Oct_30_1935,configural_featural,2020.2.4,None,
conf_haus,Designs/instructions_haus_1234.png,,,,,1,1,5,1,9,0,9,0,,,,,,,,,,,,,,,,,,,,,,,,,,,,,,,,,,,,,,,,,,,,,,,,,,,,,,,,,,,0,-0.17295000000000002,0.0,Stimuli/H-8sim2.png,Stimuli/H-8sim3.png,None,None,None,f,0,0.7758335811085999,None,575.7727897829609,None,,,,,sophie,1,2,2020_Oct_30_1935,configural_featural,2020.2.4,None,
conf_haus,Designs/instructions_haus_1234.png,,,,,1,1,5,1,10,0,10,0,,,,,,,,,,,,,,,,,,,,,,,,,,,,,,,,,,,,,,,,,,,,,,,,,,,,,,,,,,,0,0.17295000000000002,1.0,Stimuli/H-8sim2.png,Stimuli/H-8sim2.png,None,None,None,f,1,0.45207601389847696,None,577.2729854040081,None,,,,,sophie,1,2,2020_Oct_30_1935,configural_featural,2020.2.4,None,
conf_haus,Designs/instructions_haus_1234.png,,,,,1,1,5,1,11,0,11,0,,,,,,,,,,,,,,,,,,,,,,,,,,,,,,,,,,,,,,,,,,,,,,,,,,,,,,,,,,,0,0.17295000000000002,1.0,Stimuli/H-8sim1.png,Stimuli/H-8sim1.png,None,None,None,f,1,0.28735266090370715,None,578.458846741938,None,,,,,sophie,1,2,2020_Oct_30_1935,configural_featural,2020.2.4,None,
conf_haus,Designs/instructions_haus_1234.png,,,,,1,1,5,1,12,0,12,0,,,,,,,,,,,,,,,,,,,,,,,,,,,,,,,,,,,,,,,,,,,,,,,,,,,,,,,,,,,0,-0.17295000000000002,0.0,Stimuli/H-8sim0.png,Stimuli/H-8sim2.png,None,None,None,j,1,0.2780141760595143,None,579.4750618559774,None,,,,,sophie,1,2,2020_Oct_30_1935,configural_featural,2020.2.4,None,
conf_haus,Designs/instructions_haus_1234.png,,,,,1,1,5,1,13,0,13,0,,,,,,,,,,,,,,,,,,,,,,,,,,,,,,,,,,,,,,,,,,,,,,,,,,,,,,,,,,,0,-0.17295000000000002,0.0,Stimuli/H-8sim2.png,Stimuli/H-8sim0.png,None,None,None,j,1,0.516316064982675,None,580.4730270729633,None,,,,,sophie,1,2,2020_Oct_30_1935,configural_featural,2020.2.4,None,
conf_haus,Designs/instructions_haus_1234.png,,,,,1,1,5,1,14,0,14,0,,,,,,,,,,,,,,,,,,,,,,,,,,,,,,,,,,,,,,,,,,,,,,,,,,,,,,,,,,,0,-0.17295000000000002,1.0,Stimuli/H-8sim1.png,Stimuli/H-8sim1.png,None,None,None,f,1,0.38917303597554564,None,581.706141563016,None,,,,,sophie,1,2,2020_Oct_30_1935,configural_featural,2020.2.4,None,
conf_haus,Designs/instructions_haus_1234.png,,,,,1,1,5,1,15,0,15,0,,,,,,,,,,,,,,,,,,,,,,,,,,,,,,,,,,,,,,,,,,,,,,,,,,,,,,,,,,,0,-0.17295000000000002,1.0,Stimuli/H-8sim2.png,Stimuli/H-8sim2.png,None,None,None,j,0,0.4453892189776525,None,582.8254959370242,None,,,,,sophie,1,2,2020_Oct_30_1935,configural_featural,2020.2.4,None,
conf_haus,Designs/instructions_haus_1234.png,,,,,1,1,5,1,16,0,16,0,,,,,,,,,,,,,,,,,,,,,,,,,,,,,,,,,,,,,,,,,,,,,,,,,,,,,,,,,,,0,0.17295000000000002,1.0,Stimuli/H-8sim0.png,Stimuli/H-8sim0.png,None,None,None,f,1,0.45541569497436285,None,583.9898624259513,None,,,,,sophie,1,2,2020_Oct_30_1935,configural_featural,2020.2.4,None,
conf_haus,Designs/instructions_haus_1234.png,,,,,1,1,5,1,17,0,17,0,,,,,,,,,,,,,,,,,,,,,,,,,,,,,,,,,,,,,,,,,,,,,,,,,,,,,,,,,,,1,0.17295000000000002,0.0,Stimuli/H-8sim3.png,Stimuli/H-8sim2.png,None,None,None,j,1,0.6386523529654369,None,585.1729855419835,None,,,,,sophie,1,2,2020_Oct_30_1935,configural_featural,2020.2.4,None,
conf_haus,Designs/instructions_haus_1234.png,,,,,1,1,5,1,18,0,18,0,,,,,,,,,,,,,,,,,,,,,,,,,,,,,,,,,,,,,,,,,,,,,,,,,,,,,,,,,,,0,0.17295000000000002,0.0,Stimuli/H-8sim3.png,Stimuli/H-8sim0.png,None,None,None,j,1,0.468568739015609,None,586.5398222419899,None,,,,,sophie,1,2,2020_Oct_30_1935,configural_featural,2020.2.4,None,
conf_haus,Designs/instructions_haus_1234.png,,,,,1,1,5,1,19,0,19,0,,,,,,,,,,,,,,,,,,,,,,,,,,,,,,,,,,,,,,,,,,,,,,,,,,,,,,,,,,,0,-0.17295000000000002,1.0,Stimuli/H-8sim0.png,Stimuli/H-8sim0.png,None,None,None,f,1,0.4743929849937558,None,587.7398662810447,None,,,,,sophie,1,2,2020_Oct_30_1935,configural_featural,2020.2.4,None,
conf_haus,Designs/instructions_haus_1234.png,,,,,1,1,5,1,20,0,20,0,,,,,,,,,,,,,,,,,,,,,,,,,,,,,,,,,,,,,,,,,,,,,,,,,,,,,,,,,,,0,0.17295000000000002,1.0,Stimuli/H-8sim2.png,Stimuli/H-8sim2.png,None,None,None,j,0,1.3611515980446711,None,588.9588894069893,None,,,,,sophie,1,2,2020_Oct_30_1935,configural_featural,2020.2.4,None,
conf_haus,Designs/instructions_haus_1234.png,,,,,1,1,5,1,21,0,21,0,,,,,,,,,,,,,,,,,,,,,,,,,,,,,,,,,,,,,,,,,,,,,,,,,,,,,,,,,,,0,0.17295000000000002,0.0,Stimuli/H-8sim1.png,Stimuli/H-8sim0.png,None,None,None,j,1,0.5369177770335227,None,591.0397700120229,None,,,,,sophie,1,2,2020_Oct_30_1935,configural_featural,2020.2.4,None,
conf_haus,Designs/instructions_haus_1234.png,,,,,1,1,5,1,22,0,22,0,,,,,,,,,,,,,,,,,,,,,,,,,,,,,,,,,,,,,,,,,,,,,,,,,,,,,,,,,,,1,0.17295000000000002,1.0,Stimuli/H-8sim3.png,Stimuli/H-8sim3.png,None,None,None,f,1,0.3833724460564554,None,592.3065540459938,None,,,,,sophie,1,2,2020_Oct_30_1935,configural_featural,2020.2.4,None,
conf_haus,Designs/instructions_haus_1234.png,,,,,1,1,5,1,23,0,23,0,,,,,,,,,,,,,,,,,,,,,,,,,,,,,,,,,,,,,,,,,,,,,,,,,,,,,,,,,,,0,-0.17295000000000002,0.0,Stimuli/H-8sim0.png,Stimuli/H-8sim3.png,None,None,None,j,1,0.499113837024197,None,593.4065384629648,None,,,,,sophie,1,2,2020_Oct_30_1935,configural_featural,2020.2.4,None,
conf_haus,Designs/instructions_haus_1234.png,,,,,1,1,5,1,24,0,24,0,,,,,,,,,,,,,,,,,,,,,,,,,,,,,,,,,,,,,,,,,,,,,,,,,,,,,,,,,,,0,-0.17295000000000002,1.0,Stimuli/H-8sim2.png,Stimuli/H-8sim2.png,None,None,None,f,1,0.5412875519832596,None,594.623243361013,None,,,,,sophie,1,2,2020_Oct_30_1935,configural_featural,2020.2.4,None,
conf_haus,Designs/instructions_haus_1234.png,,,,,1,1,5,1,25,0,25,0,,,,,,,,,,,,,,,,,,,,,,,,,,,,,,,,,,,,,,,,,,,,,,,,,,,,,,,,,,,1,0.17295000000000002,0.0,Stimuli/H-8sim3.png,Stimuli/H-8sim1.png,None,None,None,j,1,0.3773554000072181,None,595.9065949809738,None,,,,,sophie,1,2,2020_Oct_30_1935,configural_featural,2020.2.4,None,
conf_haus,Designs/instructions_haus_1234.png,,,,,1,1,5,1,26,0,26,0,,,,,,,,,,,,,,,,,,,,,,,,,,,,,,,,,,,,,,,,,,,,,,,,,,,,,,,,,,,0,-0.17295000000000002,1.0,Stimuli/H-8sim3.png,Stimuli/H-8sim3.png,None,None,None,f,1,0.551804417045787,None,597.0255764919566,None,,,,,sophie,1,2,2020_Oct_30_1935,configural_featural,2020.2.4,None,
conf_haus,Designs/instructions_haus_1234.png,,,,,1,1,5,1,27,0,27,0,,,,,,,,,,,,,,,,,,,,,,,,,,,,,,,,,,,,,,,,,,,,,,,,,,,,,,,,,,,0,0.17295000000000002,0.0,Stimuli/H-8sim1.png,Stimuli/H-8sim3.png,None,None,None,j,1,0.46688893192913383,None,598.3065996089717,None,,,,,sophie,1,2,2020_Oct_30_1935,configural_featural,2020.2.4,None,
conf_haus,Designs/instructions_haus_1234.png,,,,,1,1,5,1,28,0,28,0,,,,,,,,,,,,,,,,,,,,,,,,,,,,,,,,,,,,,,,,,,,,,,,,,,,,,,,,,,,0,0.17295000000000002,0.0,Stimuli/H-8sim2.png,Stimuli/H-8sim0.png,None,None,None,j,1,0.6549502030247822,None,599.5231724260375,None,,,,,sophie,1,2,2020_Oct_30_1935,configural_featural,2020.2.4,None,
conf_haus,Designs/instructions_haus_1234.png,,,,,1,1,5,1,29,0,29,0,,,,,,,,,,,,,,,,,,,,,,,,,,,,,,,,,,,,,,,,,,,,,,,,,,,,,,,,,,,0,-0.17295000000000002,1.0,Stimuli/H-8sim0.png,Stimuli/H-8sim0.png,None,None,None,f,1,0.32410353200975806,None,600.9066357540432,None,,,,,sophie,1,2,2020_Oct_30_1935,configural_featural,2020.2.4,None,
conf_haus,Designs/instructions_haus_1234.png,,,,,1,1,5,1,30,0,30,0,,,,,,,,,,,,,,,,,,,,,,,,,,,,,,,,,,,,,,,,,,,,,,,,,,,,,,,,,,,1,-0.17295000000000002,1.0,Stimuli/H-8sim1.png,Stimuli/H-8sim1.png,None,None,None,f,1,0.3231070638867095,None,601.9566238169791,None,,,,,sophie,1,2,2020_Oct_30_1935,configural_featural,2020.2.4,None,
conf_haus,Designs/instructions_haus_1234.png,,,,,1,1,5,1,31,0,31,0,,,,,,,,,,,,,,,,,,,,,,,,,,,,,,,,,,,,,,,,,,,,,,,,,,,,,,,,,,,0,-0.17295000000000002,1.0,Stimuli/H-8sim3.png,Stimuli/H-8sim3.png,None,None,None,f,1,0.6844681189395487,None,603.0066592949443,None,,,,,sophie,1,2,2020_Oct_30_1935,configural_featural,2020.2.4,None,
conf_haus,Designs/instructions_haus_1234.png,,,,,1,1,5,1,32,0,32,0,,,,,,,,,,,,,,,,,,,,,,,,,,,,,,,,,,,,,,,,,,,,,,,,,,,,,,,,,,,0,0.17295000000000002,1.0,Stimuli/H-8sim2.png,Stimuli/H-8sim2.png,None,None,None,j,0,0.6429450570140034,None,604.4232549209846,None,,,,,sophie,1,2,2020_Oct_30_1935,configural_featural,2020.2.4,None,
conf_haus,Designs/instructions_haus_1234.png,,,,,1,1,5,1,33,0,33,0,,,,,,,,,,,,,,,,,,,,,,,,,,,,,,,,,,,,,,,,,,,,,,,,,,,,,,,,,,,0,0.17295000000000002,0.0,Stimuli/H-8sim2.png,Stimuli/H-8sim1.png,None,None,None,j,1,0.6753343639429659,None,605.8067103619687,None,,,,,sophie,1,2,2020_Oct_30_1935,configural_featural,2020.2.4,None,
conf_haus,Designs/instructions_haus_1234.png,,,,,1,1,5,1,34,0,34,0,,,,,,,,,,,,,,,,,,,,,,,,,,,,,,,,,,,,,,,,,,,,,,,,,,,,,,,,,,,0,-0.17295000000000002,0.0,Stimuli/H-8sim1.png,Stimuli/H-8sim3.png,None,None,None,j,1,0.4660981750348583,None,607.2067154629622,None,,,,,sophie,1,2,2020_Oct_30_1935,configural_featural,2020.2.4,None,
conf_haus,Designs/instructions_haus_1234.png,,,,,1,1,5,1,35,0,35,0,,,,,,,,,,,,,,,,,,,,,,,,,,,,,,,,,,,,,,,,,,,,,,,,,,,,,,,,,,,0,0.17295000000000002,0.0,Stimuli/H-8sim0.png,Stimuli/H-8sim2.png,None,None,None,j,1,0.6161289510782808,None,608.3899581979495,None,,,,,sophie,1,2,2020_Oct_30_1935,configural_featural,2020.2.4,None,
conf_haus,Designs/instructions_haus_1234.png,,,,,1,1,5,1,36,0,36,0,,,,,,,,,,,,,,,,,,,,,,,,,,,,,,,,,,,,,,,,,,,,,,,,,,,,,,,,,,,1,0.17295000000000002,0.0,Stimuli/H-8sim2.png,Stimuli/H-8sim3.png,None,None,None,f,0,0.4393450660863891,None,609.7232445810223,None,,,,,sophie,1,2,2020_Oct_30_1935,configural_featural,2020.2.4,None,
conf_haus,Designs/instructions_haus_1234.png,,,,,1,1,5,1,37,0,37,0,,,,,,,,,,,,,,,,,,,,,,,,,,,,,,,,,,,,,,,,,,,,,,,,,,,,,,,,,,,0,-0.17295000000000002,1.0,Stimuli/H-8sim1.png,Stimuli/H-8sim1.png,None,None,None,f,1,0.24937406706158072,None,610.8899883959675,None,,,,,sophie,1,2,2020_Oct_30_1935,configural_featural,2020.2.4,None,
conf_haus,Designs/instructions_haus_1234.png,,,,,1,1,5,1,38,0,38,0,,,,,,,,,,,,,,,,,,,,,,,,,,,,,,,,,,,,,,,,,,,,,,,,,,,,,,,,,,,0,0.17295000000000002,1.0,Stimuli/H-8sim3.png,Stimuli/H-8sim3.png,None,None,None,f,1,0.34941128897480667,None,611.8566418540431,None,,,,,sophie,1,2,2020_Oct_30_1935,configural_featural,2020.2.4,None,
conf_haus,Designs/instructions_haus_1234.png,,,,,1,1,5,1,39,0,39,0,,,,,,,,,,,,,,,,,,,,,,,,,,,,,,,,,,,,,,,,,,,,,,,,,,,,,,,,,,,0,-0.17295000000000002,0.0,Stimuli/H-8sim2.png,Stimuli/H-8sim1.png,None,None,None,j,1,0.3400223640492186,None,612.9257835820317,None,,,,,sophie,1,2,2020_Oct_30_1935,configural_featural,2020.2.4,None,
conf_haus,Designs/instructions_haus_1234.png,,,,,1,1,5,1,40,0,40,0,,,,,,,,,,,,,,,,,,,,,,,,,,,,,,,,,,,,,,,,,,,,,,,,,,,,,,,,,,,0,-0.17295000000000002,1.0,Stimuli/H-8sim0.png,Stimuli/H-8sim0.png,None,None,None,f,1,0.39911337511148304,None,613.9901130660437,None,,,,,sophie,1,2,2020_Oct_30_1935,configural_featural,2020.2.4,None,
conf_haus,Designs/instructions_haus_1234.png,,,,,1,1,5,1,41,0,41,0,,,,,,,,,,,,,,,,,,,,,,,,,,,,,,,,,,,,,,,,,,,,,,,,,,,,,,,,,,,0,-0.17295000000000002,0.0,Stimuli/H-8sim1.png,Stimuli/H-8sim2.png,None,None,None,j,1,0.33809503202792257,None,615.1066977629671,None,,,,,sophie,1,2,2020_Oct_30_1935,configural_featural,2020.2.4,None,
conf_haus,Designs/instructions_haus_1234.png,,,,,1,1,5,1,42,0,42,0,,,,,,,,,,,,,,,,,,,,,,,,,,,,,,,,,,,,,,,,,,,,,,,,,,,,,,,,,,,0,0.17295000000000002,1.0,Stimuli/H-8sim1.png,Stimuli/H-8sim1.png,None,None,None,f,1,0.3642879769904539,None,616.1734708630247,None,,,,,sophie,1,2,2020_Oct_30_1935,configural_featural,2020.2.4,None,
conf_haus,Designs/instructions_haus_1234.png,,,,,1,1,5,1,43,0,43,0,,,,,,,,,,,,,,,,,,,,,,,,,,,,,,,,,,,,,,,,,,,,,,,,,,,,,,,,,,,0,0.17295000000000002,0.0,Stimuli/H-8sim0.png,Stimuli/H-8sim1.png,None,None,None,f,0,0.7498498969944194,None,617.25679260795,None,,,,,sophie,1,2,2020_Oct_30_1935,configural_featural,2020.2.4,None,
conf_haus,Designs/instructions_haus_1234.png,,,,,1,1,5,1,44,0,44,0,,,,,,,,,,,,,,,,,,,,,,,,,,,,,,,,,,,,,,,,,,,,,,,,,,,,,,,,,,,0,-0.17295000000000002,0.0,Stimuli/H-8sim3.png,Stimuli/H-8sim1.png,None,None,None,j,1,0.49922495300415903,None,618.7232835419709,None,,,,,sophie,1,2,2020_Oct_30_1935,configural_featural,2020.2.4,None,
conf_haus,Designs/instructions_haus_1234.png,,,,,1,1,5,1,45,0,45,0,,,,,,,,,,,,,,,,,,,,,,,,,,,,,,,,,,,,,,,,,,,,,,,,,,,,,,,,,,,0,-0.17295000000000002,0.0,Stimuli/H-8sim1.png,Stimuli/H-8sim0.png,None,None,None,f,0,0.7729885269654915,None,619.9400048389798,None,,,,,sophie,1,2,2020_Oct_30_1935,configural_featural,2020.2.4,None,
conf_haus,Designs/instructions_haus_1234.png,,,,,1,1,5,1,46,0,46,0,,,,,,,,,,,,,,,,,,,,,,,,,,,,,,,,,,,,,,,,,,,,,,,,,,,,,,,,,,,0,0.17295000000000002,1.0,Stimuli/H-8sim0.png,Stimuli/H-8sim0.png,None,None,None,f,1,0.4582086659502238,None,621.4397796789417,None,,,,,sophie,1,2,2020_Oct_30_1935,configural_featural,2020.2.4,None,
