X Scale,Y Scale,key_resp_10.keys,key_resp_10.rt,prePrac1Resp.keys,prePrac1Resp.corr,prePrac1Resp.rt,prePrac2_fixResp.keys,prePrac2_fixResp.corr,prePrac2_imgResp.keys,prePrac2_imgResp.corr,prePrac2_imgResp.rt,pfix_switches,Pside,ptrial_type1S0D,ptarget,pprobe,prac_resp.keys,prac_resp.corr,prac_resp.rt,prac_fix_resp.keys,prac_fix_resp.corr,pTrials_slow.thisRepN,pTrials_slow.thisTrialN,pTrials_slow.thisN,pTrials_slow.thisIndex,pTrials_slow.ran,participant,design,position,date,expName,psychopyVersion,OS,frameRate,xResolution,yResolution,prac_fix_resp_fast.keys,prac_fix_resp_fast.corr,prac_resp2.keys,prac_resp2.corr,prac_resp2.rt,pTrials_fast.thisRepN,pTrials_fast.thisTrialN,pTrials_fast.thisN,pTrials_fast.thisIndex,pTrials_fast.ran,prac_fix_resp_fast.rt,pTrials.thisRepN,pTrials.thisTrialN,pTrials.thisN,pTrials.thisIndex,pTrials.ran,prac_fix_resp.rt,fix_switches,side,trial_type1S0D,target,probe,block_type,key_resp.keys,key_resp.corr,key_resp.rt,fix_resp.keys,fix_resp.corr,trials.thisRepN,trials.thisTrialN,trials.thisN,trials.thisIndex,trials.ran,fix_resp.rt,blocks.thisRepN,blocks.thisTrialN,blocks.thisN,blocks.thisIndex,blocks.ran,Block_type,instruction_text
0.052,0.0524,space,28.45111,f,0,33.342315,,0,j,0,2.467985,0,0.180761727,0,Stimuli/f131.png,Stimuli/f131.png,f,1,2.22277,,1,0,0,0,0,1,WR,1,2,2021-01-06_23h09.31.682,configural_featural,2020.2.4,Win32,60,1536,864,,,,,,,,,,,,,,,,,,,,,,,,,,,,,,,,,,,,,,,,,
,,,,,,,,,,,,1,0.180761727,1,Stimuli/eumu.png,Stimuli/f24.png,j,1,0.55031,,0,1,0,1,0,1,WR,1,2,2021-01-06_23h09.31.682,configural_featural,2020.2.4,Win32,60,1536,864,,,,,,,,,,,,,,,,,,,,,,,,,,,,,,,,,,,,,,,,,
,,,,,,,,,,,,0,0.180761727,0,Stimuli/edmd.png,Stimuli/edmd.png,j,0,1.335935,,1,2,0,2,0,1,WR,1,2,2021-01-06_23h09.31.682,configural_featural,2020.2.4,Win32,60,1536,864,,,,,,,,,,,,,,,,,,,,,,,,,,,,,,,,,,,,,,,,,
,,,,,,,,,,,,0,0.180761727,1,Stimuli/eomu.png,Stimuli/f15.png,j,1,1.32087,,1,3,0,3,0,1,WR,1,2,2021-01-06_23h09.31.682,configural_featural,2020.2.4,Win32,60,1536,864,,,,,,,,,,,,,,,,,,,,,,,,,,,,,,,,,,,,,,,,,
,,,,,,,,,,,,0,0.180761727,0,Stimuli/eumu.png,Stimuli/eumu.png,,,,,,,,,,,WR,1,2,2021-01-06_23h09.31.682,configural_featural,2020.2.4,Win32,60,1536,864,,1,j,0,0.75304,0,0,0,0,1,,,,,,,,,,,,,,,,,,,,,,,,,,,,,,,
,,,,,,,,,,,,1,0.180761727,1,Stimuli/f142.png,Stimuli/f15.png,,,,,,,,,,,WR,1,2,2021-01-06_23h09.31.682,configural_featural,2020.2.4,Win32,60,1536,864,space,1,j,1,0.984365,1,0,1,0,1,1.82048,,,,,,,,,,,,,,,,,,,,,,,,,,,,,,
,,,,,,,,,,,,0,0.180761727,0,Stimuli/f142.png,Stimuli/f142.png,,,,,,,,,,,WR,1,2,2021-01-06_23h09.31.682,configural_featural,2020.2.4,Win32,60,1536,864,,1,j,0,0.740585,2,0,2,0,1,,,,,,,,,,,,,,,,,,,,,,,,,,,,,,,
,,,,,,,,,,,,0,0.180761727,1,Stimuli/f131.png,Stimuli/f142.png,,,,,,,,,,,WR,1,2,2021-01-06_23h09.31.682,configural_featural,2020.2.4,Win32,60,1536,864,,1,j,1,1.144945,3,0,3,0,1,,,,,,,,,,,,,,,,,,,,,,,,,,,,,,,
,,,,,,,,,,,,,,,,,,,,,,,,,,,WR,1,2,2021-01-06_23h09.31.682,configural_featural,2020.2.4,Win32,60,1536,864,,,,,,,,,,,,0,0,0,0,1,,,,,,,,,,,,,,,,,,,,,,,,,
,,,,,,,,,,,,0,-0.180761727,0,Stimuli/H7sim0.png,Stimuli/H7sim0.png,j,0,2.334205,,1,0,0,0,0,1,WR,1,2,2021-01-06_23h09.31.682,configural_featural,2020.2.4,Win32,60,1536,864,,,,,,,,,,,,,,,,,,,,,,,,,,,,,,,,,,,,,,,,,
,,,,,,,,,,,,0,-0.180761727,1,Stimuli/H5sim0.png,Stimuli/H-8sim3.png,j,1,1.606525,,1,1,0,1,0,1,WR,1,2,2021-01-06_23h09.31.682,configural_featural,2020.2.4,Win32,60,1536,864,,,,,,,,,,,,,,,,,,,,,,,,,,,,,,,,,,,,,,,,,
,,,,,,,,,,,,1,-0.180761727,0,Stimuli/H-8sim0.png,Stimuli/H-8sim0.png,j,0,0.95374,space,1,2,0,2,0,1,WR,1,2,2021-01-06_23h09.31.682,configural_featural,2020.2.4,Win32,60,1536,864,,,,,,,,,,,,,,,,,3.754255,,,,,,,,,,,,,,,,,,,,,,,,
,,,,,,,,,,,,0,-0.180761727,1,Stimuli/H8sim0.png,Stimuli/H-8sim0.png,j,1,3.88289,,1,3,0,3,0,1,WR,1,2,2021-01-06_23h09.31.682,configural_featural,2020.2.4,Win32,60,1536,864,,,,,,,,,,,,,,,,,,,,,,,,,,,,,,,,,,,,,,,,,
,,,,,,,,,,,,0,-0.180761727,0,Stimuli/H-8sim3.png,Stimuli/H-8sim3.png,,,,,,,,,,,WR,1,2,2021-01-06_23h09.31.682,configural_featural,2020.2.4,Win32,60,1536,864,,1,j,0,0.528785,0,0,0,0,1,,,,,,,,,,,,,,,,,,,,,,,,,,,,,,,
,,,,,,,,,,,,0,-0.180761727,1,Stimuli/H-8sim0.png,Stimuli/H7sim0.png,,,,,,,,,,,WR,1,2,2021-01-06_23h09.31.682,configural_featural,2020.2.4,Win32,60,1536,864,,1,j,1,0.65424,1,0,1,0,1,,,,,,,,,,,,,,,,,,,,,,,,,,,,,,,
,,,,,,,,,,,,1,-0.180761727,0,Stimuli/H-8sim1.png,Stimuli/H-8sim1.png,,,,,,,,,,,WR,1,2,2021-01-06_23h09.31.682,configural_featural,2020.2.4,Win32,60,1536,864,space,1,,0,,2,0,2,0,1,0.630375,,,,,,,,,,,,,,,,,,,,,,,,,,,,,,
,,,,,,,,,,,,0,-0.180761727,1,Stimuli/H-8sim0.png,Stimuli/H6sim0.png,,,,,,,,,,,WR,1,2,2021-01-06_23h09.31.682,configural_featural,2020.2.4,Win32,60,1536,864,,1,j,1,0.82829,3,0,3,0,1,,,,,,,,,,,,,,,,,,,,,,,,,,,,,,,
,,,,,,,,,,,,,,,,,,,,,,,,,,,WR,1,2,2021-01-06_23h09.31.682,configural_featural,2020.2.4,Win32,60,1536,864,,,,,,,,,,,,1,0,1,0,1,,,,,,,,,,,,,,,,,,,,,,,,,
,,,,,,,,,,,,,,,,,,,,,,,,,,,WR,1,2,2021-01-06_23h09.31.682,configural_featural,2020.2.4,Win32,60,1536,864,,,,,,,,,,,,,,,,,,0,-0.180761727,1,Stimuli/eimd.png,Stimuli/eimd.png,conf_face,f,1,0.82858,,1,0,0,0,0,1,,,,,,,,
,,,,,,,,,,,,,,,,,,,,,,,,,,,WR,1,2,2021-01-06_23h09.31.682,configural_featural,2020.2.4,Win32,60,1536,864,,,,,,,,,,,,,,,,,,0,-0.180761727,0,Stimuli/edmd.png,Stimuli/eumu.png,conf_face,j,1,0.417095,,1,1,0,1,0,1,,,,,,,,
,,,,,,,,,,,,,,,,,,,,,,,,,,,WR,1,2,2021-01-06_23h09.31.682,configural_featural,2020.2.4,Win32,60,1536,864,,,,,,,,,,,,,,,,,,0,-0.180761727,0,Stimuli/eomu.png,Stimuli/eimd.png,conf_face,j,1,0.74245,,1,2,0,2,0,1,,,,,,,,
,,,,,,,,,,,,,,,,,,,,,,,,,,,WR,1,2,2021-01-06_23h09.31.682,configural_featural,2020.2.4,Win32,60,1536,864,,,,,,,,,,,,,,,,,,1,-0.180761727,1,Stimuli/edmd.png,Stimuli/edmd.png,conf_face,j,0,0.611595,space,1,3,0,3,0,1,0.65177,,,,,,,
,,,,,,,,,,,,,,,,,,,,,,,,,,,WR,1,2,2021-01-06_23h09.31.682,configural_featural,2020.2.4,Win32,60,1536,864,,,,,,,,,,,,,,,,,,0,-0.180761727,1,Stimuli/eomu.png,Stimuli/eomu.png,conf_face,j,0,0.795735,,1,4,0,4,0,1,,,,,,,,
,,,,,,,,,,,,,,,,,,,,,,,,,,,WR,1,2,2021-01-06_23h09.31.682,configural_featural,2020.2.4,Win32,60,1536,864,,,,,,,,,,,,,,,,,,0,-0.180761727,0,Stimuli/edmd.png,Stimuli/eimd.png,conf_face,f,0,1.184095,,1,5,0,5,0,1,,,,,,,,
,,,,,,,,,,,,,,,,,,,,,,,,,,,WR,1,2,2021-01-06_23h09.31.682,configural_featural,2020.2.4,Win32,60,1536,864,,,,,,,,,,,,,,,,,,0,-0.180761727,0,Stimuli/edmd.png,Stimuli/eumu.png,conf_face,j,1,0.436355,,1,6,0,6,0,1,,,,,,,,
,,,,,,,,,,,,,,,,,,,,,,,,,,,WR,1,2,2021-01-06_23h09.31.682,configural_featural,2020.2.4,Win32,60,1536,864,,,,,,,,,,,,,,,,,,0,-0.180761727,1,Stimuli/eumu.png,Stimuli/eumu.png,conf_face,j,0,0.51937,,1,7,0,7,0,1,,,,,,,,
,,,,,,,,,,,,,,,,,,,,,,,,,,,WR,1,2,2021-01-06_23h09.31.682,configural_featural,2020.2.4,Win32,60,1536,864,,,,,,,,,,,,,,,,,,1,-0.180761727,1,Stimuli/eomu.png,Stimuli/eomu.png,conf_face,j,0,0.601475,space,1,8,0,8,0,1,0.635485,,,,,,,
,,,,,,,,,,,,,,,,,,,,,,,,,,,WR,1,2,2021-01-06_23h09.31.682,configural_featural,2020.2.4,Win32,60,1536,864,,,,,,,,,,,,,,,,,,0,-0.180761727,1,Stimuli/eumu.png,Stimuli/eumu.png,conf_face,f,1,0.9788,,1,9,0,9,0,1,,,,,,,,
,,,,,,,,,,,,,,,,,,,,,,,,,,,WR,1,2,2021-01-06_23h09.31.682,configural_featural,2020.2.4,Win32,60,1536,864,,,,,,,,,,,,,,,,,,1,-0.180761727,0,Stimuli/eomu.png,Stimuli/edmd.png,conf_face,j,1,0.56752,space,1,10,0,10,0,1,0.772705,,,,,,,
,,,,,,,,,,,,,,,,,,,,,,,,,,,WR,1,2,2021-01-06_23h09.31.682,configural_featural,2020.2.4,Win32,60,1536,864,,,,,,,,,,,,,,,,,,0,-0.180761727,0,Stimuli/eumu.png,Stimuli/eomu.png,conf_face,j,1,0.733225,,1,11,0,11,0,1,,,,,,,,
,,,,,,,,,,,,,,,,,,,,,,,,,,,WR,1,2,2021-01-06_23h09.31.682,configural_featural,2020.2.4,Win32,60,1536,864,,,,,,,,,,,,,,,,,,0,-0.180761727,0,Stimuli/edmd.png,Stimuli/eomu.png,conf_face,j,1,0.46357,,1,12,0,12,0,1,,,,,,,,
,,,,,,,,,,,,,,,,,,,,,,,,,,,WR,1,2,2021-01-06_23h09.31.682,configural_featural,2020.2.4,Win32,60,1536,864,,,,,,,,,,,,,,,,,,0,-0.180761727,1,Stimuli/eimd.png,Stimuli/eimd.png,conf_face,j,0,0.873835,,1,13,0,13,0,1,,,,,,,,
,,,,,,,,,,,,,,,,,,,,,,,,,,,WR,1,2,2021-01-06_23h09.31.682,configural_featural,2020.2.4,Win32,60,1536,864,,,,,,,,,,,,,,,,,,0,-0.180761727,1,Stimuli/edmd.png,Stimuli/edmd.png,conf_face,f,1,0.738155,,1,14,0,14,0,1,,,,,,,,
,,,,,,,,,,,,,,,,,,,,,,,,,,,WR,1,2,2021-01-06_23h09.31.682,configural_featural,2020.2.4,Win32,60,1536,864,,,,,,,,,,,,,,,,,,0,-0.180761727,1,Stimuli/edmd.png,Stimuli/edmd.png,conf_face,f,1,0.769475,,1,15,0,15,0,1,,,,,,,,
,,,,,,,,,,,,,,,,,,,,,,,,,,,WR,1,2,2021-01-06_23h09.31.682,configural_featural,2020.2.4,Win32,60,1536,864,,,,,,,,,,,,,,,,,,1,-0.180761727,0,Stimuli/eumu.png,Stimuli/edmd.png,conf_face,j,1,0.509355,space,1,16,0,16,0,1,0.629265,,,,,,,
,,,,,,,,,,,,,,,,,,,,,,,,,,,WR,1,2,2021-01-06_23h09.31.682,configural_featural,2020.2.4,Win32,60,1536,864,,,,,,,,,,,,,,,,,,0,-0.180761727,0,Stimuli/edmd.png,Stimuli/eomu.png,conf_face,j,1,0.58514,,1,17,0,17,0,1,,,,,,,,
,,,,,,,,,,,,,,,,,,,,,,,,,,,WR,1,2,2021-01-06_23h09.31.682,configural_featural,2020.2.4,Win32,60,1536,864,,,,,,,,,,,,,,,,,,1,-0.180761727,0,Stimuli/eumu.png,Stimuli/eimd.png,conf_face,f,0,1.005065,space,1,18,0,18,0,1,0.762365,,,,,,,
,,,,,,,,,,,,,,,,,,,,,,,,,,,WR,1,2,2021-01-06_23h09.31.682,configural_featural,2020.2.4,Win32,60,1536,864,,,,,,,,,,,,,,,,,,0,-0.180761727,0,Stimuli/eumu.png,Stimuli/eimd.png,conf_face,j,1,0.500975,,1,19,0,19,0,1,,,,,,,,
,,,,,,,,,,,,,,,,,,,,,,,,,,,WR,1,2,2021-01-06_23h09.31.682,configural_featural,2020.2.4,Win32,60,1536,864,,,,,,,,,,,,,,,,,,0,-0.180761727,1,Stimuli/eumu.png,Stimuli/eumu.png,conf_face,f,1,0.757945,,1,20,0,20,0,1,,,,,,,,
,,,,,,,,,,,,,,,,,,,,,,,,,,,WR,1,2,2021-01-06_23h09.31.682,configural_featural,2020.2.4,Win32,60,1536,864,,,,,,,,,,,,,,,,,,0,-0.180761727,1,Stimuli/eomu.png,Stimuli/eomu.png,conf_face,f,1,1.07716,,1,21,0,21,0,1,,,,,,,,
,,,,,,,,,,,,,,,,,,,,,,,,,,,WR,1,2,2021-01-06_23h09.31.682,configural_featural,2020.2.4,Win32,60,1536,864,,,,,,,,,,,,,,,,,,0,-0.180761727,0,Stimuli/eumu.png,Stimuli/eomu.png,conf_face,j,1,0.529115,,1,22,0,22,0,1,,,,,,,,
,,,,,,,,,,,,,,,,,,,,,,,,,,,WR,1,2,2021-01-06_23h09.31.682,configural_featural,2020.2.4,Win32,60,1536,864,,,,,,,,,,,,,,,,,,1,-0.180761727,1,Stimuli/eimd.png,Stimuli/eimd.png,conf_face,f,1,0.802395,space,1,23,0,23,0,1,0.75082,,,,,,,
,,,,,,,,,,,,,,,,,,,,,,,,,,,WR,1,2,2021-01-06_23h09.31.682,configural_featural,2020.2.4,Win32,60,1536,864,,,,,,,,,,,,,,,,,,0,-0.180761727,0,Stimuli/eomu.png,Stimuli/eimd.png,conf_face,j,1,0.998,,1,24,0,24,0,1,,,,,,,,
,,,,,,,,,,,,,,,,,,,,,,,,,,,WR,1,2,2021-01-06_23h09.31.682,configural_featural,2020.2.4,Win32,60,1536,864,,,,,,,,,,,,,,,,,,0,-0.180761727,1,Stimuli/eomu.png,Stimuli/eomu.png,conf_face,f,1,1.017995,,1,25,0,25,0,1,,,,,,,,
,,,,,,,,,,,,,,,,,,,,,,,,,,,WR,1,2,2021-01-06_23h09.31.682,configural_featural,2020.2.4,Win32,60,1536,864,,,,,,,,,,,,,,,,,,1,-0.180761727,1,Stimuli/edmd.png,Stimuli/edmd.png,conf_face,f,1,0.84691,space,1,26,0,26,0,1,0.627025,,,,,,,
,,,,,,,,,,,,,,,,,,,,,,,,,,,WR,1,2,2021-01-06_23h09.31.682,configural_featural,2020.2.4,Win32,60,1536,864,,,,,,,,,,,,,,,,,,0,-0.180761727,1,Stimuli/eumu.png,Stimuli/eumu.png,conf_face,j,0,1.245875,,1,27,0,27,0,1,,,,,,,,
,,,,,,,,,,,,,,,,,,,,,,,,,,,WR,1,2,2021-01-06_23h09.31.682,configural_featural,2020.2.4,Win32,60,1536,864,,,,,,,,,,,,,,,,,,0,-0.180761727,0,Stimuli/eumu.png,Stimuli/edmd.png,conf_face,f,0,0.580165,,1,28,0,28,0,1,,,,,,,,
,,,,,,,,,,,,,,,,,,,,,,,,,,,WR,1,2,2021-01-06_23h09.31.682,configural_featural,2020.2.4,Win32,60,1536,864,,,,,,,,,,,,,,,,,,1,-0.180761727,0,Stimuli/eimd.png,Stimuli/edmd.png,conf_face,j,1,0.53555,space,1,29,0,29,0,1,0.622465,,,,,,,
,,,,,,,,,,,,,,,,,,,,,,,,,,,WR,1,2,2021-01-06_23h09.31.682,configural_featural,2020.2.4,Win32,60,1536,864,,,,,,,,,,,,,,,,,,0,-0.180761727,0,Stimuli/eimd.png,Stimuli/eumu.png,conf_face,f,0,0.60396,,1,30,0,30,0,1,,,,,,,,
,,,,,,,,,,,,,,,,,,,,,,,,,,,WR,1,2,2021-01-06_23h09.31.682,configural_featural,2020.2.4,Win32,60,1536,864,,,,,,,,,,,,,,,,,,0,-0.180761727,1,Stimuli/eimd.png,Stimuli/eimd.png,conf_face,j,0,0.87734,,1,31,0,31,0,1,,,,,,,,
,,,,,,,,,,,,,,,,,,,,,,,,,,,WR,1,2,2021-01-06_23h09.31.682,configural_featural,2020.2.4,Win32,60,1536,864,,,,,,,,,,,,,,,,,,0,-0.180761727,1,Stimuli/eumu.png,Stimuli/eumu.png,conf_face,j,0,1.10538,,1,32,0,32,0,1,,,,,,,,
,,,,,,,,,,,,,,,,,,,,,,,,,,,WR,1,2,2021-01-06_23h09.31.682,configural_featural,2020.2.4,Win32,60,1536,864,,,,,,,,,,,,,,,,,,1,-0.180761727,0,Stimuli/eimd.png,Stimuli/eomu.png,conf_face,f,0,14.33898,,0,33,0,33,0,1,,,,,,,,
,,,,,,,,,,,,,,,,,,,,,,,,,,,WR,1,2,2021-01-06_23h09.31.682,configural_featural,2020.2.4,Win32,60,1536,864,,,,,,,,,,,,,,,,,,0,-0.180761727,1,Stimuli/eimd.png,Stimuli/eimd.png,conf_face,j,0,1.55786,,1,34,0,34,0,1,,,,,,,,
,,,,,,,,,,,,,,,,,,,,,,,,,,,WR,1,2,2021-01-06_23h09.31.682,configural_featural,2020.2.4,Win32,60,1536,864,,,,,,,,,,,,,,,,,,0,-0.180761727,0,Stimuli/eimd.png,Stimuli/edmd.png,conf_face,j,1,0.63987,,1,35,0,35,0,1,,,,,,,,
,,,,,,,,,,,,,,,,,,,,,,,,,,,WR,1,2,2021-01-06_23h09.31.682,configural_featural,2020.2.4,Win32,60,1536,864,,,,,,,,,,,,,,,,,,1,-0.180761727,0,Stimuli/eimd.png,Stimuli/eomu.png,conf_face,j,1,4.08246,space,1,36,0,36,0,1,1.293885,,,,,,,
,,,,,,,,,,,,,,,,,,,,,,,,,,,WR,1,2,2021-01-06_23h09.31.682,configural_featural,2020.2.4,Win32,60,1536,864,,,,,,,,,,,,,,,,,,0,-0.180761727,1,Stimuli/edmd.png,Stimuli/edmd.png,conf_face,j,0,1.217405,,1,37,0,37,0,1,,,,,,,,
,,,,,,,,,,,,,,,,,,,,,,,,,,,WR,1,2,2021-01-06_23h09.31.682,configural_featural,2020.2.4,Win32,60,1536,864,,,,,,,,,,,,,,,,,,0,-0.180761727,1,Stimuli/eomu.png,Stimuli/eomu.png,conf_face,j,0,0.43529,,1,38,0,38,0,1,,,,,,,,
,,,,,,,,,,,,,,,,,,,,,,,,,,,WR,1,2,2021-01-06_23h09.31.682,configural_featural,2020.2.4,Win32,60,1536,864,,,,,,,,,,,,,,,,,,0,-0.180761727,1,Stimuli/edmd.png,Stimuli/edmd.png,conf_face,j,0,0.537495,,1,39,0,39,0,1,,,,,,,,
,,,,,,,,,,,,,,,,,,,,,,,,,,,WR,1,2,2021-01-06_23h09.31.682,configural_featural,2020.2.4,Win32,60,1536,864,,,,,,,,,,,,,,,,,,0,-0.180761727,0,Stimuli/eomu.png,Stimuli/eumu.png,conf_face,j,1,0.423055,,1,40,0,40,0,1,,,,,,,,
,,,,,,,,,,,,,,,,,,,,,,,,,,,WR,1,2,2021-01-06_23h09.31.682,configural_featural,2020.2.4,Win32,60,1536,864,,,,,,,,,,,,,,,,,,1,-0.180761727,0,Stimuli/edmd.png,Stimuli/eimd.png,conf_face,f,0,0.706055,space,1,41,0,41,0,1,0.70725,,,,,,,
,,,,,,,,,,,,,,,,,,,,,,,,,,,WR,1,2,2021-01-06_23h09.31.682,configural_featural,2020.2.4,Win32,60,1536,864,,,,,,,,,,,,,,,,,,0,-0.180761727,0,Stimuli/eomu.png,Stimuli/eumu.png,conf_face,f,0,0.72935,,1,42,0,42,0,1,,,,,,,,
,,,,,,,,,,,,,,,,,,,,,,,,,,,WR,1,2,2021-01-06_23h09.31.682,configural_featural,2020.2.4,Win32,60,1536,864,,,,,,,,,,,,,,,,,,0,-0.180761727,1,Stimuli/eumu.png,Stimuli/eumu.png,conf_face,j,0,0.336355,,1,43,0,43,0,1,,,,,,,,
,,,,,,,,,,,,,,,,,,,,,,,,,,,WR,1,2,2021-01-06_23h09.31.682,configural_featural,2020.2.4,Win32,60,1536,864,,,,,,,,,,,,,,,,,,1,-0.180761727,1,Stimuli/eomu.png,Stimuli/eomu.png,conf_face,j,0,0.47117,space,1,44,0,44,0,1,0.70286,,,,,,,
,,,,,,,,,,,,,,,,,,,,,,,,,,,WR,1,2,2021-01-06_23h09.31.682,configural_featural,2020.2.4,Win32,60,1536,864,,,,,,,,,,,,,,,,,,0,-0.180761727,1,Stimuli/eimd.png,Stimuli/eimd.png,conf_face,j,0,0.911805,,1,45,0,45,0,1,,,,,,,,
,,,,,,,,,,,,,,,,,,,,,,,,,,,WR,1,2,2021-01-06_23h09.31.682,configural_featural,2020.2.4,Win32,60,1536,864,,,,,,,,,,,,,,,,,,0,-0.180761727,0,Stimuli/eomu.png,Stimuli/edmd.png,conf_face,j,1,3.501055,,1,46,0,46,0,1,,,,,,,,
,,,,,,,,,,,,,,,,,,,,,,,,,,,WR,1,2,2021-01-06_23h09.31.682,configural_featural,2020.2.4,Win32,60,1536,864,,,,,,,,,,,,,,,,,,0,-0.180761727,0,Stimuli/eimd.png,Stimuli/eumu.png,conf_face,j,1,1.623835,,1,47,0,47,0,1,,,,,,,,
,,,,,,,,,,,,,,,,,,,,,,,,,,,WR,1,2,2021-01-06_23h09.31.682,configural_featural,2020.2.4,Win32,60,1536,864,,,,,,,,,,,,,,,,,,,,,,,,,,,,,,,,,,,0,0,0,0,1,conf_face,Designs/instructions_face_1234.png
,,,,,,,,,,,,,,,,,,,,,,,,,,,WR,1,2,2021-01-06_23h09.31.682,configural_featural,2020.2.4,Win32,60,1536,864,,,,,,,,,,,,,,,,,,0,-0.180761727,1,Stimuli/H-8sim3.png,Stimuli/H-8sim3.png,conf_haus,j,0,0.608425,,1,0,0,0,0,1,,,,,,,,
,,,,,,,,,,,,,,,,,,,,,,,,,,,WR,1,2,2021-01-06_23h09.31.682,configural_featural,2020.2.4,Win32,60,1536,864,,,,,,,,,,,,,,,,,,0,-0.180761727,1,Stimuli/H-8sim1.png,Stimuli/H-8sim1.png,conf_haus,f,1,0.519005,,1,1,0,1,0,1,,,,,,,,
,,,,,,,,,,,,,,,,,,,,,,,,,,,WR,1,2,2021-01-06_23h09.31.682,configural_featural,2020.2.4,Win32,60,1536,864,,,,,,,,,,,,,,,,,,1,-0.180761727,0,Stimuli/H-8sim1.png,Stimuli/H-8sim2.png,conf_haus,j,1,0.50939,space,1,2,0,2,0,1,0.694625,,,,,,,
,,,,,,,,,,,,,,,,,,,,,,,,,,,WR,1,2,2021-01-06_23h09.31.682,configural_featural,2020.2.4,Win32,60,1536,864,,,,,,,,,,,,,,,,,,0,-0.180761727,0,Stimuli/H-8sim0.png,Stimuli/H-8sim3.png,conf_haus,j,1,0.440875,,1,3,0,3,0,1,,,,,,,,
,,,,,,,,,,,,,,,,,,,,,,,,,,,WR,1,2,2021-01-06_23h09.31.682,configural_featural,2020.2.4,Win32,60,1536,864,,,,,,,,,,,,,,,,,,0,-0.180761727,0,Stimuli/H-8sim2.png,Stimuli/H-8sim1.png,conf_haus,j,1,0.50148,,1,4,0,4,0,1,,,,,,,,
,,,,,,,,,,,,,,,,,,,,,,,,,,,WR,1,2,2021-01-06_23h09.31.682,configural_featural,2020.2.4,Win32,60,1536,864,,,,,,,,,,,,,,,,,,0,-0.180761727,1,Stimuli/H-8sim0.png,Stimuli/H-8sim0.png,conf_haus,j,0,0.488265,,1,5,0,5,0,1,,,,,,,,
,,,,,,,,,,,,,,,,,,,,,,,,,,,WR,1,2,2021-01-06_23h09.31.682,configural_featural,2020.2.4,Win32,60,1536,864,,,,,,,,,,,,,,,,,,0,-0.180761727,0,Stimuli/H-8sim2.png,Stimuli/H-8sim0.png,conf_haus,j,1,0.586925,,1,6,0,6,0,1,,,,,,,,
,,,,,,,,,,,,,,,,,,,,,,,,,,,WR,1,2,2021-01-06_23h09.31.682,configural_featural,2020.2.4,Win32,60,1536,864,,,,,,,,,,,,,,,,,,1,-0.180761727,1,Stimuli/H-8sim2.png,Stimuli/H-8sim2.png,conf_haus,j,0,0.567695,space,1,7,0,7,0,1,1.08612,,,,,,,
,,,,,,,,,,,,,,,,,,,,,,,,,,,WR,1,2,2021-01-06_23h09.31.682,configural_featural,2020.2.4,Win32,60,1536,864,,,,,,,,,,,,,,,,,,0,-0.180761727,1,Stimuli/H-8sim2.png,Stimuli/H-8sim2.png,conf_haus,f,1,0.868735,,1,8,0,8,0,1,,,,,,,,
,,,,,,,,,,,,,,,,,,,,,,,,,,,WR,1,2,2021-01-06_23h09.31.682,configural_featural,2020.2.4,Win32,60,1536,864,,,,,,,,,,,,,,,,,,0,-0.180761727,0,Stimuli/H-8sim1.png,Stimuli/H-8sim0.png,conf_haus,f,0,1.321125,,1,9,0,9,0,1,,,,,,,,
,,,,,,,,,,,,,,,,,,,,,,,,,,,WR,1,2,2021-01-06_23h09.31.682,configural_featural,2020.2.4,Win32,60,1536,864,,,,,,,,,,,,,,,,,,0,-0.180761727,0,Stimuli/H-8sim2.png,Stimuli/H-8sim3.png,conf_haus,j,1,0.68589,,1,10,0,10,0,1,,,,,,,,
,,,,,,,,,,,,,,,,,,,,,,,,,,,WR,1,2,2021-01-06_23h09.31.682,configural_featural,2020.2.4,Win32,60,1536,864,,,,,,,,,,,,,,,,,,1,-0.180761727,1,Stimuli/H-8sim1.png,Stimuli/H-8sim1.png,conf_haus,f,1,0.787235,space,1,11,0,11,0,1,0.702435,,,,,,,
,,,,,,,,,,,,,,,,,,,,,,,,,,,WR,1,2,2021-01-06_23h09.31.682,configural_featural,2020.2.4,Win32,60,1536,864,,,,,,,,,,,,,,,,,,0,-0.180761727,0,Stimuli/H-8sim0.png,Stimuli/H-8sim1.png,conf_haus,j,1,1.05336,,1,12,0,12,0,1,,,,,,,,
,,,,,,,,,,,,,,,,,,,,,,,,,,,WR,1,2,2021-01-06_23h09.31.682,configural_featural,2020.2.4,Win32,60,1536,864,,,,,,,,,,,,,,,,,,0,-0.180761727,1,Stimuli/H-8sim0.png,Stimuli/H-8sim0.png,conf_haus,f,1,0.587005,,1,13,0,13,0,1,,,,,,,,
,,,,,,,,,,,,,,,,,,,,,,,,,,,WR,1,2,2021-01-06_23h09.31.682,configural_featural,2020.2.4,Win32,60,1536,864,,,,,,,,,,,,,,,,,,0,-0.180761727,1,Stimuli/H-8sim3.png,Stimuli/H-8sim3.png,conf_haus,f,1,0.75767,,1,14,0,14,0,1,,,,,,,,
,,,,,,,,,,,,,,,,,,,,,,,,,,,WR,1,2,2021-01-06_23h09.31.682,configural_featural,2020.2.4,Win32,60,1536,864,,,,,,,,,,,,,,,,,,0,-0.180761727,1,Stimuli/H-8sim0.png,Stimuli/H-8sim0.png,conf_haus,f,1,0.607085,,1,15,0,15,0,1,,,,,,,,
,,,,,,,,,,,,,,,,,,,,,,,,,,,WR,1,2,2021-01-06_23h09.31.682,configural_featural,2020.2.4,Win32,60,1536,864,,,,,,,,,,,,,,,,,,1,-0.180761727,0,Stimuli/H-8sim1.png,Stimuli/H-8sim3.png,conf_haus,f,0,0.570875,space,1,16,0,16,0,1,0.52415,,,,,,,
,,,,,,,,,,,,,,,,,,,,,,,,,,,WR,1,2,2021-01-06_23h09.31.682,configural_featural,2020.2.4,Win32,60,1536,864,,,,,,,,,,,,,,,,,,0,-0.180761727,0,Stimuli/H-8sim3.png,Stimuli/H-8sim1.png,conf_haus,j,1,0.372405,,1,17,0,17,0,1,,,,,,,,
,,,,,,,,,,,,,,,,,,,,,,,,,,,WR,1,2,2021-01-06_23h09.31.682,configural_featural,2020.2.4,Win32,60,1536,864,,,,,,,,,,,,,,,,,,0,-0.180761727,1,Stimuli/H-8sim3.png,Stimuli/H-8sim3.png,conf_haus,j,0,0.477375,,1,18,0,18,0,1,,,,,,,,
,,,,,,,,,,,,,,,,,,,,,,,,,,,WR,1,2,2021-01-06_23h09.31.682,configural_featural,2020.2.4,Win32,60,1536,864,,,,,,,,,,,,,,,,,,1,-0.180761727,1,Stimuli/H-8sim2.png,Stimuli/H-8sim2.png,conf_haus,f,1,0.512865,space,1,19,0,19,0,1,0.70036,,,,,,,
,,,,,,,,,,,,,,,,,,,,,,,,,,,WR,1,2,2021-01-06_23h09.31.682,configural_featural,2020.2.4,Win32,60,1536,864,,,,,,,,,,,,,,,,,,0,-0.180761727,0,Stimuli/H-8sim1.png,Stimuli/H-8sim3.png,conf_haus,f,0,2.90087,,1,20,0,20,0,1,,,,,,,,
,,,,,,,,,,,,,,,,,,,,,,,,,,,WR,1,2,2021-01-06_23h09.31.682,configural_featural,2020.2.4,Win32,60,1536,864,,,,,,,,,,,,,,,,,,0,-0.180761727,0,Stimuli/H-8sim3.png,Stimuli/H-8sim0.png,conf_haus,j,1,0.885885,,1,21,0,21,0,1,,,,,,,,
,,,,,,,,,,,,,,,,,,,,,,,,,,,WR,1,2,2021-01-06_23h09.31.682,configural_featural,2020.2.4,Win32,60,1536,864,,,,,,,,,,,,,,,,,,1,-0.180761727,1,Stimuli/H-8sim1.png,Stimuli/H-8sim1.png,conf_haus,j,0,0.76078,space,1,22,0,22,0,1,0.670125,,,,,,,
,,,,,,,,,,,,,,,,,,,,,,,,,,,WR,1,2,2021-01-06_23h09.31.682,configural_featural,2020.2.4,Win32,60,1536,864,,,,,,,,,,,,,,,,,,0,-0.180761727,0,Stimuli/H-8sim0.png,Stimuli/H-8sim1.png,conf_haus,f,0,0.62816,,1,23,0,23,0,1,,,,,,,,
,,,,,,,,,,,,,,,,,,,,,,,,,,,WR,1,2,2021-01-06_23h09.31.682,configural_featural,2020.2.4,Win32,60,1536,864,,,,,,,,,,,,,,,,,,0,-0.180761727,0,Stimuli/H-8sim3.png,Stimuli/H-8sim2.png,conf_haus,j,1,0.46759,,1,24,0,24,0,1,,,,,,,,
,,,,,,,,,,,,,,,,,,,,,,,,,,,WR,1,2,2021-01-06_23h09.31.682,configural_featural,2020.2.4,Win32,60,1536,864,,,,,,,,,,,,,,,,,,0,-0.180761727,1,Stimuli/H-8sim2.png,Stimuli/H-8sim2.png,conf_haus,f,1,0.36348,,1,25,0,25,0,1,,,,,,,,
,,,,,,,,,,,,,,,,,,,,,,,,,,,WR,1,2,2021-01-06_23h09.31.682,configural_featural,2020.2.4,Win32,60,1536,864,,,,,,,,,,,,,,,,,,1,-0.180761727,1,Stimuli/H-8sim0.png,Stimuli/H-8sim0.png,conf_haus,f,1,0.59921,space,1,26,0,26,0,1,0.800555,,,,,,,
,,,,,,,,,,,,,,,,,,,,,,,,,,,WR,1,2,2021-01-06_23h09.31.682,configural_featural,2020.2.4,Win32,60,1536,864,,,,,,,,,,,,,,,,,,0,-0.180761727,0,Stimuli/H-8sim0.png,Stimuli/H-8sim3.png,conf_haus,j,1,2.33463,,1,27,0,27,0,1,,,,,,,,
,,,,,,,,,,,,,,,,,,,,,,,,,,,WR,1,2,2021-01-06_23h09.31.682,configural_featural,2020.2.4,Win32,60,1536,864,,,,,,,,,,,,,,,,,,0,-0.180761727,1,Stimuli/H-8sim3.png,Stimuli/H-8sim3.png,conf_haus,f,1,0.751085,,1,28,0,28,0,1,,,,,,,,
,,,,,,,,,,,,,,,,,,,,,,,,,,,WR,1,2,2021-01-06_23h09.31.682,configural_featural,2020.2.4,Win32,60,1536,864,,,,,,,,,,,,,,,,,,0,-0.180761727,0,Stimuli/H-8sim0.png,Stimuli/H-8sim2.png,conf_haus,f,0,0.509135,,1,29,0,29,0,1,,,,,,,,
,,,,,,,,,,,,,,,,,,,,,,,,,,,WR,1,2,2021-01-06_23h09.31.682,configural_featural,2020.2.4,Win32,60,1536,864,,,,,,,,,,,,,,,,,,1,-0.180761727,1,Stimuli/H-8sim1.png,Stimuli/H-8sim1.png,conf_haus,f,1,0.483155,space,1,30,0,30,0,1,0.51963,,,,,,,
,,,,,,,,,,,,,,,,,,,,,,,,,,,WR,1,2,2021-01-06_23h09.31.682,configural_featural,2020.2.4,Win32,60,1536,864,,,,,,,,,,,,,,,,,,0,-0.180761727,0,Stimuli/H-8sim2.png,Stimuli/H-8sim0.png,conf_haus,f,0,0.74554,,1,31,0,31,0,1,,,,,,,,
,,,,,,,,,,,,,,,,,,,,,,,,,,,WR,1,2,2021-01-06_23h09.31.682,configural_featural,2020.2.4,Win32,60,1536,864,,,,,,,,,,,,,,,,,,1,-0.180761727,1,Stimuli/H-8sim2.png,Stimuli/H-8sim2.png,conf_haus,f,1,1.302245,space,1,32,0,32,0,1,0.65168,,,,,,,
,,,,,,,,,,,,,,,,,,,,,,,,,,,WR,1,2,2021-01-06_23h09.31.682,configural_featural,2020.2.4,Win32,60,1536,864,,,,,,,,,,,,,,,,,,0,-0.180761727,0,Stimuli/H-8sim2.png,Stimuli/H-8sim1.png,conf_haus,j,1,1.44291,,1,33,0,33,0,1,,,,,,,,
,,,,,,,,,,,,,,,,,,,,,,,,,,,WR,1,2,2021-01-06_23h09.31.682,configural_featural,2020.2.4,Win32,60,1536,864,,,,,,,,,,,,,,,,,,0,-0.180761727,1,Stimuli/H-8sim1.png,Stimuli/H-8sim1.png,conf_haus,j,0,1.72986,,1,34,0,34,0,1,,,,,,,,
,,,,,,,,,,,,,,,,,,,,,,,,,,,WR,1,2,2021-01-06_23h09.31.682,configural_featural,2020.2.4,Win32,60,1536,864,,,,,,,,,,,,,,,,,,0,-0.180761727,0,Stimuli/H-8sim3.png,Stimuli/H-8sim2.png,conf_haus,f,0,0.61136,,1,35,0,35,0,1,,,,,,,,
,,,,,,,,,,,,,,,,,,,,,,,,,,,WR,1,2,2021-01-06_23h09.31.682,configural_featural,2020.2.4,Win32,60,1536,864,,,,,,,,,,,,,,,,,,1,-0.180761727,0,Stimuli/H-8sim1.png,Stimuli/H-8sim0.png,conf_haus,f,0,0.60326,space,1,36,0,36,0,1,0.536125,,,,,,,
,,,,,,,,,,,,,,,,,,,,,,,,,,,WR,1,2,2021-01-06_23h09.31.682,configural_featural,2020.2.4,Win32,60,1536,864,,,,,,,,,,,,,,,,,,0,-0.180761727,1,Stimuli/H-8sim0.png,Stimuli/H-8sim0.png,conf_haus,j,0,0.80916,,1,37,0,37,0,1,,,,,,,,
,,,,,,,,,,,,,,,,,,,,,,,,,,,WR,1,2,2021-01-06_23h09.31.682,configural_featural,2020.2.4,Win32,60,1536,864,,,,,,,,,,,,,,,,,,0,-0.180761727,1,Stimuli/H-8sim3.png,Stimuli/H-8sim3.png,conf_haus,f,1,1.223155,,1,38,0,38,0,1,,,,,,,,
,,,,,,,,,,,,,,,,,,,,,,,,,,,WR,1,2,2021-01-06_23h09.31.682,configural_featural,2020.2.4,Win32,60,1536,864,,,,,,,,,,,,,,,,,,1,-0.180761727,1,Stimuli/H-8sim0.png,Stimuli/H-8sim0.png,conf_haus,f,1,0.461505,space,1,39,0,39,0,1,0.809555,,,,,,,
,,,,,,,,,,,,,,,,,,,,,,,,,,,WR,1,2,2021-01-06_23h09.31.682,configural_featural,2020.2.4,Win32,60,1536,864,,,,,,,,,,,,,,,,,,0,-0.180761727,0,Stimuli/H-8sim2.png,Stimuli/H-8sim3.png,conf_haus,j,1,1.200605,,1,40,0,40,0,1,,,,,,,,
,,,,,,,,,,,,,,,,,,,,,,,,,,,WR,1,2,2021-01-06_23h09.31.682,configural_featural,2020.2.4,Win32,60,1536,864,,,,,,,,,,,,,,,,,,0,-0.180761727,0,Stimuli/H-8sim3.png,Stimuli/H-8sim0.png,conf_haus,j,1,0.87638,,1,41,0,41,0,1,,,,,,,,
,,,,,,,,,,,,,,,,,,,,,,,,,,,WR,1,2,2021-01-06_23h09.31.682,configural_featural,2020.2.4,Win32,60,1536,864,,,,,,,,,,,,,,,,,,0,-0.180761727,0,Stimuli/H-8sim0.png,Stimuli/H-8sim2.png,conf_haus,j,1,0.81965,,1,42,0,42,0,1,,,,,,,,
,,,,,,,,,,,,,,,,,,,,,,,,,,,WR,1,2,2021-01-06_23h09.31.682,configural_featural,2020.2.4,Win32,60,1536,864,,,,,,,,,,,,,,,,,,0,-0.180761727,1,Stimuli/H-8sim2.png,Stimuli/H-8sim2.png,conf_haus,f,1,0.90746,space,0,43,0,43,0,1,0.0172,,,,,,,
,,,,,,,,,,,,,,,,,,,,,,,,,,,WR,1,2,2021-01-06_23h09.31.682,configural_featural,2020.2.4,Win32,60,1536,864,,,,,,,,,,,,,,,,,,1,-0.180761727,0,Stimuli/H-8sim1.png,Stimuli/H-8sim2.png,conf_haus,j,1,1.489785,space,1,44,0,44,0,1,0.634325,,,,,,,
,,,,,,,,,,,,,,,,,,,,,,,,,,,WR,1,2,2021-01-06_23h09.31.682,configural_featural,2020.2.4,Win32,60,1536,864,,,,,,,,,,,,,,,,,,0,-0.180761727,1,Stimuli/H-8sim1.png,Stimuli/H-8sim1.png,conf_haus,f,1,0.660555,,1,45,0,45,0,1,,,,,,,,
,,,,,,,,,,,,,,,,,,,,,,,,,,,WR,1,2,2021-01-06_23h09.31.682,configural_featural,2020.2.4,Win32,60,1536,864,,,,,,,,,,,,,,,,,,0,-0.180761727,0,Stimuli/H-8sim3.png,Stimuli/H-8sim1.png,conf_haus,f,0,0.79633,,1,46,0,46,0,1,,,,,,,,
,,,,,,,,,,,,,,,,,,,,,,,,,,,WR,1,2,2021-01-06_23h09.31.682,configural_featural,2020.2.4,Win32,60,1536,864,,,,,,,,,,,,,,,,,,0,-0.180761727,1,Stimuli/H-8sim3.png,Stimuli/H-8sim3.png,conf_haus,f,1,0.654405,,1,47,0,47,0,1,,,,,,,,
,,,,,,,,,,,,,,,,,,,,,,,,,,,WR,1,2,2021-01-06_23h09.31.682,configural_featural,2020.2.4,Win32,60,1536,864,,,,,,,,,,,,,,,,,,,,,,,,,,,,,,,,,,,0,1,1,1,1,conf_haus,Designs/instructions_haus_1234.png
,,,,,,,,,,,,,,,,,,,,,,,,,,,WR,1,2,2021-01-06_23h09.31.682,configural_featural,2020.2.4,Win32,60,1536,864,,,,,,,,,,,,,,,,,,0,-0.180761727,1,Stimuli/f15.png,Stimuli/f15.png,feat_face,j,0,0.850955,,1,0,0,0,0,1,,,,,,,,
,,,,,,,,,,,,,,,,,,,,,,,,,,,WR,1,2,2021-01-06_23h09.31.682,configural_featural,2020.2.4,Win32,60,1536,864,,,,,,,,,,,,,,,,,,0,-0.180761727,0,Stimuli/f15.png,Stimuli/f142.png,feat_face,j,1,0.95527,,1,1,0,1,0,1,,,,,,,,
,,,,,,,,,,,,,,,,,,,,,,,,,,,WR,1,2,2021-01-06_23h09.31.682,configural_featural,2020.2.4,Win32,60,1536,864,,,,,,,,,,,,,,,,,,0,-0.180761727,0,Stimuli/f15.png,Stimuli/f24.png,feat_face,j,1,0.621105,,1,2,0,2,0,1,,,,,,,,
,,,,,,,,,,,,,,,,,,,,,,,,,,,WR,1,2,2021-01-06_23h09.31.682,configural_featural,2020.2.4,Win32,60,1536,864,,,,,,,,,,,,,,,,,,0,-0.180761727,1,Stimuli/f24.png,Stimuli/f24.png,feat_face,j,0,0.38561,,1,3,0,3,0,1,,,,,,,,
,,,,,,,,,,,,,,,,,,,,,,,,,,,WR,1,2,2021-01-06_23h09.31.682,configural_featural,2020.2.4,Win32,60,1536,864,,,,,,,,,,,,,,,,,,1,-0.180761727,0,Stimuli/f24.png,Stimuli/f131.png,feat_face,j,1,0.51899,space,1,4,0,4,0,1,0.66311,,,,,,,
,,,,,,,,,,,,,,,,,,,,,,,,,,,WR,1,2,2021-01-06_23h09.31.682,configural_featural,2020.2.4,Win32,60,1536,864,,,,,,,,,,,,,,,,,,0,-0.180761727,1,Stimuli/f142.png,Stimuli/f142.png,feat_face,j,0,0.70855,,1,5,0,5,0,1,,,,,,,,
,,,,,,,,,,,,,,,,,,,,,,,,,,,WR,1,2,2021-01-06_23h09.31.682,configural_featural,2020.2.4,Win32,60,1536,864,,,,,,,,,,,,,,,,,,0,-0.180761727,1,Stimuli/f131.png,Stimuli/f131.png,feat_face,j,0,0.594055,,1,6,0,6,0,1,,,,,,,,
,,,,,,,,,,,,,,,,,,,,,,,,,,,WR,1,2,2021-01-06_23h09.31.682,configural_featural,2020.2.4,Win32,60,1536,864,,,,,,,,,,,,,,,,,,0,-0.180761727,0,Stimuli/f24.png,Stimuli/f15.png,feat_face,j,1,0.620495,,1,7,0,7,0,1,,,,,,,,
,,,,,,,,,,,,,,,,,,,,,,,,,,,WR,1,2,2021-01-06_23h09.31.682,configural_featural,2020.2.4,Win32,60,1536,864,,,,,,,,,,,,,,,,,,1,-0.180761727,0,Stimuli/f131.png,Stimuli/f24.png,feat_face,f,0,1.22053,space,1,8,0,8,0,1,0.6532,,,,,,,
,,,,,,,,,,,,,,,,,,,,,,,,,,,WR,1,2,2021-01-06_23h09.31.682,configural_featural,2020.2.4,Win32,60,1536,864,,,,,,,,,,,,,,,,,,0,-0.180761727,1,Stimuli/f142.png,Stimuli/f142.png,feat_face,j,0,2.039285,,1,9,0,9,0,1,,,,,,,,
,,,,,,,,,,,,,,,,,,,,,,,,,,,WR,1,2,2021-01-06_23h09.31.682,configural_featural,2020.2.4,Win32,60,1536,864,,,,,,,,,,,,,,,,,,0,-0.180761727,1,Stimuli/f15.png,Stimuli/f15.png,feat_face,j,0,0.858155,,1,10,0,10,0,1,,,,,,,,
,,,,,,,,,,,,,,,,,,,,,,,,,,,WR,1,2,2021-01-06_23h09.31.682,configural_featural,2020.2.4,Win32,60,1536,864,,,,,,,,,,,,,,,,,,1,-0.180761727,0,Stimuli/f15.png,Stimuli/f24.png,feat_face,j,1,0.744465,space,1,11,0,11,0,1,0.667865,,,,,,,
,,,,,,,,,,,,,,,,,,,,,,,,,,,WR,1,2,2021-01-06_23h09.31.682,configural_featural,2020.2.4,Win32,60,1536,864,,,,,,,,,,,,,,,,,,0,-0.180761727,0,Stimuli/f131.png,Stimuli/f15.png,feat_face,j,1,1.109115,,1,12,0,12,0,1,,,,,,,,
,,,,,,,,,,,,,,,,,,,,,,,,,,,WR,1,2,2021-01-06_23h09.31.682,configural_featural,2020.2.4,Win32,60,1536,864,,,,,,,,,,,,,,,,,,0,-0.180761727,1,Stimuli/f24.png,Stimuli/f24.png,feat_face,f,1,0.82418,,1,13,0,13,0,1,,,,,,,,
,,,,,,,,,,,,,,,,,,,,,,,,,,,WR,1,2,2021-01-06_23h09.31.682,configural_featural,2020.2.4,Win32,60,1536,864,,,,,,,,,,,,,,,,,,1,-0.180761727,0,Stimuli/f24.png,Stimuli/f142.png,feat_face,j,1,0.700025,space,1,14,0,14,0,1,0.75052,,,,,,,
,,,,,,,,,,,,,,,,,,,,,,,,,,,WR,1,2,2021-01-06_23h09.31.682,configural_featural,2020.2.4,Win32,60,1536,864,,,,,,,,,,,,,,,,,,0,-0.180761727,0,Stimuli/f131.png,Stimuli/f142.png,feat_face,j,1,0.55386,,1,15,0,15,0,1,,,,,,,,
,,,,,,,,,,,,,,,,,,,,,,,,,,,WR,1,2,2021-01-06_23h09.31.682,configural_featural,2020.2.4,Win32,60,1536,864,,,,,,,,,,,,,,,,,,0,-0.180761727,1,Stimuli/f131.png,Stimuli/f131.png,feat_face,j,0,0.85218,,1,16,0,16,0,1,,,,,,,,
,,,,,,,,,,,,,,,,,,,,,,,,,,,WR,1,2,2021-01-06_23h09.31.682,configural_featural,2020.2.4,Win32,60,1536,864,,,,,,,,,,,,,,,,,,0,-0.180761727,1,Stimuli/f15.png,Stimuli/f15.png,feat_face,f,1,0.783725,,1,17,0,17,0,1,,,,,,,,
,,,,,,,,,,,,,,,,,,,,,,,,,,,WR,1,2,2021-01-06_23h09.31.682,configural_featural,2020.2.4,Win32,60,1536,864,,,,,,,,,,,,,,,,,,1,-0.180761727,1,Stimuli/f24.png,Stimuli/f24.png,feat_face,f,1,2.487005,space,1,18,0,18,0,1,0.77151,,,,,,,
,,,,,,,,,,,,,,,,,,,,,,,,,,,WR,1,2,2021-01-06_23h09.31.682,configural_featural,2020.2.4,Win32,60,1536,864,,,,,,,,,,,,,,,,,,0,-0.180761727,0,Stimuli/f142.png,Stimuli/f131.png,feat_face,j,1,1.12499,,1,19,0,19,0,1,,,,,,,,
,,,,,,,,,,,,,,,,,,,,,,,,,,,WR,1,2,2021-01-06_23h09.31.682,configural_featural,2020.2.4,Win32,60,1536,864,,,,,,,,,,,,,,,,,,0,-0.180761727,1,Stimuli/f142.png,Stimuli/f142.png,feat_face,f,1,0.90095,,1,20,0,20,0,1,,,,,,,,
,,,,,,,,,,,,,,,,,,,,,,,,,,,WR,1,2,2021-01-06_23h09.31.682,configural_featural,2020.2.4,Win32,60,1536,864,,,,,,,,,,,,,,,,,,0,-0.180761727,0,Stimuli/f142.png,Stimuli/f24.png,feat_face,f,0,1.16884,,1,21,0,21,0,1,,,,,,,,
,,,,,,,,,,,,,,,,,,,,,,,,,,,WR,1,2,2021-01-06_23h09.31.682,configural_featural,2020.2.4,Win32,60,1536,864,,,,,,,,,,,,,,,,,,1,-0.180761727,0,Stimuli/f15.png,Stimuli/f131.png,feat_face,j,1,0.5785,space,1,22,0,22,0,1,0.7695,,,,,,,
,,,,,,,,,,,,,,,,,,,,,,,,,,,WR,1,2,2021-01-06_23h09.31.682,configural_featural,2020.2.4,Win32,60,1536,864,,,,,,,,,,,,,,,,,,0,-0.180761727,1,Stimuli/f131.png,Stimuli/f131.png,feat_face,j,0,1.33405,,1,23,0,23,0,1,,,,,,,,
,,,,,,,,,,,,,,,,,,,,,,,,,,,WR,1,2,2021-01-06_23h09.31.682,configural_featural,2020.2.4,Win32,60,1536,864,,,,,,,,,,,,,,,,,,0,-0.180761727,0,Stimuli/f131.png,Stimuli/f24.png,feat_face,j,1,0.488895,,1,24,0,24,0,1,,,,,,,,
,,,,,,,,,,,,,,,,,,,,,,,,,,,WR,1,2,2021-01-06_23h09.31.682,configural_featural,2020.2.4,Win32,60,1536,864,,,,,,,,,,,,,,,,,,0,-0.180761727,1,Stimuli/f142.png,Stimuli/f142.png,feat_face,j,0,0.71599,,1,25,0,25,0,1,,,,,,,,
,,,,,,,,,,,,,,,,,,,,,,,,,,,WR,1,2,2021-01-06_23h09.31.682,configural_featural,2020.2.4,Win32,60,1536,864,,,,,,,,,,,,,,,,,,1,-0.180761727,1,Stimuli/f24.png,Stimuli/f24.png,feat_face,j,0,1.803945,space,1,26,0,26,0,1,0.65163,,,,,,,
,,,,,,,,,,,,,,,,,,,,,,,,,,,WR,1,2,2021-01-06_23h09.31.682,configural_featural,2020.2.4,Win32,60,1536,864,,,,,,,,,,,,,,,,,,0,-0.180761727,1,Stimuli/f15.png,Stimuli/f15.png,feat_face,j,0,0.483575,,1,27,0,27,0,1,,,,,,,,
,,,,,,,,,,,,,,,,,,,,,,,,,,,WR,1,2,2021-01-06_23h09.31.682,configural_featural,2020.2.4,Win32,60,1536,864,,,,,,,,,,,,,,,,,,0,-0.180761727,0,Stimuli/f24.png,Stimuli/f15.png,feat_face,j,1,0.38312,,1,28,0,28,0,1,,,,,,,,
,,,,,,,,,,,,,,,,,,,,,,,,,,,WR,1,2,2021-01-06_23h09.31.682,configural_featural,2020.2.4,Win32,60,1536,864,,,,,,,,,,,,,,,,,,0,-0.180761727,0,Stimuli/f142.png,Stimuli/f15.png,feat_face,j,1,0.626275,,1,29,0,29,0,1,,,,,,,,
,,,,,,,,,,,,,,,,,,,,,,,,,,,WR,1,2,2021-01-06_23h09.31.682,configural_featural,2020.2.4,Win32,60,1536,864,,,,,,,,,,,,,,,,,,0,-0.180761727,0,Stimuli/f24.png,Stimuli/f142.png,feat_face,f,0,1.809715,,1,30,0,30,0,1,,,,,,,,
,,,,,,,,,,,,,,,,,,,,,,,,,,,WR,1,2,2021-01-06_23h09.31.682,configural_featural,2020.2.4,Win32,60,1536,864,,,,,,,,,,,,,,,,,,1,-0.180761727,1,Stimuli/f131.png,Stimuli/f131.png,feat_face,j,0,1.728055,space,1,31,0,31,0,1,0.650065,,,,,,,
,,,,,,,,,,,,,,,,,,,,,,,,,,,WR,1,2,2021-01-06_23h09.31.682,configural_featural,2020.2.4,Win32,60,1536,864,,,,,,,,,,,,,,,,,,0,-0.180761727,1,Stimuli/f142.png,Stimuli/f142.png,feat_face,f,1,0.891995,,1,32,0,32,0,1,,,,,,,,
,,,,,,,,,,,,,,,,,,,,,,,,,,,WR,1,2,2021-01-06_23h09.31.682,configural_featural,2020.2.4,Win32,60,1536,864,,,,,,,,,,,,,,,,,,1,-0.180761727,1,Stimuli/f131.png,Stimuli/f131.png,feat_face,f,1,0.761125,space,1,33,0,33,0,1,0.89043,,,,,,,
,,,,,,,,,,,,,,,,,,,,,,,,,,,WR,1,2,2021-01-06_23h09.31.682,configural_featural,2020.2.4,Win32,60,1536,864,,,,,,,,,,,,,,,,,,0,-0.180761727,0,Stimuli/f131.png,Stimuli/f142.png,feat_face,j,1,0.789575,,1,34,0,34,0,1,,,,,,,,
,,,,,,,,,,,,,,,,,,,,,,,,,,,WR,1,2,2021-01-06_23h09.31.682,configural_featural,2020.2.4,Win32,60,1536,864,,,,,,,,,,,,,,,,,,0,-0.180761727,0,Stimuli/f142.png,Stimuli/f15.png,feat_face,j,1,0.77596,,1,35,0,35,0,1,,,,,,,,
,,,,,,,,,,,,,,,,,,,,,,,,,,,WR,1,2,2021-01-06_23h09.31.682,configural_featural,2020.2.4,Win32,60,1536,864,,,,,,,,,,,,,,,,,,0,-0.180761727,0,Stimuli/f15.png,Stimuli/f142.png,feat_face,j,1,0.82393,,1,36,0,36,0,1,,,,,,,,
,,,,,,,,,,,,,,,,,,,,,,,,,,,WR,1,2,2021-01-06_23h09.31.682,configural_featural,2020.2.4,Win32,60,1536,864,,,,,,,,,,,,,,,,,,0,-0.180761727,0,Stimuli/f131.png,Stimuli/f15.png,feat_face,j,1,0.44712,,1,37,0,37,0,1,,,,,,,,
,,,,,,,,,,,,,,,,,,,,,,,,,,,WR,1,2,2021-01-06_23h09.31.682,configural_featural,2020.2.4,Win32,60,1536,864,,,,,,,,,,,,,,,,,,1,-0.180761727,0,Stimuli/f142.png,Stimuli/f24.png,feat_face,j,1,0.483615,space,1,38,0,38,0,1,0.783085,,,,,,,
,,,,,,,,,,,,,,,,,,,,,,,,,,,WR,1,2,2021-01-06_23h09.31.682,configural_featural,2020.2.4,Win32,60,1536,864,,,,,,,,,,,,,,,,,,0,-0.180761727,1,Stimuli/f15.png,Stimuli/f15.png,feat_face,j,0,0.40856,,1,39,0,39,0,1,,,,,,,,
,,,,,,,,,,,,,,,,,,,,,,,,,,,WR,1,2,2021-01-06_23h09.31.682,configural_featural,2020.2.4,Win32,60,1536,864,,,,,,,,,,,,,,,,,,1,-0.180761727,1,Stimuli/f24.png,Stimuli/f24.png,feat_face,f,1,0.683895,space,1,40,0,40,0,1,0.8932,,,,,,,
,,,,,,,,,,,,,,,,,,,,,,,,,,,WR,1,2,2021-01-06_23h09.31.682,configural_featural,2020.2.4,Win32,60,1536,864,,,,,,,,,,,,,,,,,,0,-0.180761727,1,Stimuli/f142.png,Stimuli/f142.png,feat_face,f,1,0.757015,,1,41,0,41,0,1,,,,,,,,
,,,,,,,,,,,,,,,,,,,,,,,,,,,WR,1,2,2021-01-06_23h09.31.682,configural_featural,2020.2.4,Win32,60,1536,864,,,,,,,,,,,,,,,,,,0,-0.180761727,1,Stimuli/f15.png,Stimuli/f15.png,feat_face,f,1,0.52362,,1,42,0,42,0,1,,,,,,,,
,,,,,,,,,,,,,,,,,,,,,,,,,,,WR,1,2,2021-01-06_23h09.31.682,configural_featural,2020.2.4,Win32,60,1536,864,,,,,,,,,,,,,,,,,,0,-0.180761727,1,Stimuli/f131.png,Stimuli/f131.png,feat_face,j,0,0.20503,,1,43,0,43,0,1,,,,,,,,
,,,,,,,,,,,,,,,,,,,,,,,,,,,WR,1,2,2021-01-06_23h09.31.682,configural_featural,2020.2.4,Win32,60,1536,864,,,,,,,,,,,,,,,,,,1,-0.180761727,0,Stimuli/f24.png,Stimuli/f131.png,feat_face,j,1,0.67821,space,1,44,0,44,0,1,0.71746,,,,,,,
,,,,,,,,,,,,,,,,,,,,,,,,,,,WR,1,2,2021-01-06_23h09.31.682,configural_featural,2020.2.4,Win32,60,1536,864,,,,,,,,,,,,,,,,,,0,-0.180761727,0,Stimuli/f15.png,Stimuli/f131.png,feat_face,j,1,0.63053,,1,45,0,45,0,1,,,,,,,,
,,,,,,,,,,,,,,,,,,,,,,,,,,,WR,1,2,2021-01-06_23h09.31.682,configural_featural,2020.2.4,Win32,60,1536,864,,,,,,,,,,,,,,,,,,0,-0.180761727,0,Stimuli/f142.png,Stimuli/f131.png,feat_face,j,1,0.291945,,1,46,0,46,0,1,,,,,,,,
,,,,,,,,,,,,,,,,,,,,,,,,,,,WR,1,2,2021-01-06_23h09.31.682,configural_featural,2020.2.4,Win32,60,1536,864,,,,,,,,,,,,,,,,,,0,-0.180761727,1,Stimuli/f24.png,Stimuli/f24.png,feat_face,f,1,0.7227,,1,47,0,47,0,1,,,,,,,,
,,,,,,,,,,,,,,,,,,,,,,,,,,,WR,1,2,2021-01-06_23h09.31.682,configural_featural,2020.2.4,Win32,60,1536,864,,,,,,,,,,,,,,,,,,,,,,,,,,,,,,,,,,,0,2,2,2,1,feat_face,Designs/instructions_face_1234.png
,,,,,,,,,,,,,,,,,,,,,,,,,,,WR,1,2,2021-01-06_23h09.31.682,configural_featural,2020.2.4,Win32,60,1536,864,,,,,,,,,,,,,,,,,,0,-0.180761727,0,Stimuli/H8sim0.png,Stimuli/H5sim0.png,feat_haus,j,1,0.792955,,1,0,0,0,0,1,,,,,,,,
,,,,,,,,,,,,,,,,,,,,,,,,,,,WR,1,2,2021-01-06_23h09.31.682,configural_featural,2020.2.4,Win32,60,1536,864,,,,,,,,,,,,,,,,,,0,-0.180761727,0,Stimuli/H8sim0.png,Stimuli/H7sim0.png,feat_haus,j,1,0.37968,,1,1,0,1,0,1,,,,,,,,
,,,,,,,,,,,,,,,,,,,,,,,,,,,WR,1,2,2021-01-06_23h09.31.682,configural_featural,2020.2.4,Win32,60,1536,864,,,,,,,,,,,,,,,,,,0,-0.180761727,1,Stimuli/H6sim0.png,Stimuli/H6sim0.png,feat_haus,f,1,0.56092,,1,2,0,2,0,1,,,,,,,,
,,,,,,,,,,,,,,,,,,,,,,,,,,,WR,1,2,2021-01-06_23h09.31.682,configural_featural,2020.2.4,Win32,60,1536,864,,,,,,,,,,,,,,,,,,0,-0.180761727,1,Stimuli/H7sim0.png,Stimuli/H7sim0.png,feat_haus,j,0,0.82295,,1,3,0,3,0,1,,,,,,,,
,,,,,,,,,,,,,,,,,,,,,,,,,,,WR,1,2,2021-01-06_23h09.31.682,configural_featural,2020.2.4,Win32,60,1536,864,,,,,,,,,,,,,,,,,,1,-0.180761727,0,Stimuli/H6sim0.png,Stimuli/H5sim0.png,feat_haus,j,1,0.69376,space,1,4,0,4,0,1,0.90522,,,,,,,
,,,,,,,,,,,,,,,,,,,,,,,,,,,WR,1,2,2021-01-06_23h09.31.682,configural_featural,2020.2.4,Win32,60,1536,864,,,,,,,,,,,,,,,,,,0,-0.180761727,1,Stimuli/H8sim0.png,Stimuli/H8sim0.png,feat_haus,f,1,0.769355,,1,5,0,5,0,1,,,,,,,,
,,,,,,,,,,,,,,,,,,,,,,,,,,,WR,1,2,2021-01-06_23h09.31.682,configural_featural,2020.2.4,Win32,60,1536,864,,,,,,,,,,,,,,,,,,0,-0.180761727,1,Stimuli/H5sim0.png,Stimuli/H5sim0.png,feat_haus,f,1,0.76593,,1,6,0,6,0,1,,,,,,,,
,,,,,,,,,,,,,,,,,,,,,,,,,,,WR,1,2,2021-01-06_23h09.31.682,configural_featural,2020.2.4,Win32,60,1536,864,,,,,,,,,,,,,,,,,,1,-0.180761727,1,Stimuli/H8sim0.png,Stimuli/H8sim0.png,feat_haus,j,0,0.39132,space,1,7,0,7,0,1,0.79946,,,,,,,
,,,,,,,,,,,,,,,,,,,,,,,,,,,WR,1,2,2021-01-06_23h09.31.682,configural_featural,2020.2.4,Win32,60,1536,864,,,,,,,,,,,,,,,,,,0,-0.180761727,1,Stimuli/H5sim0.png,Stimuli/H5sim0.png,feat_haus,f,1,0.719105,,1,8,0,8,0,1,,,,,,,,
,,,,,,,,,,,,,,,,,,,,,,,,,,,WR,1,2,2021-01-06_23h09.31.682,configural_featural,2020.2.4,Win32,60,1536,864,,,,,,,,,,,,,,,,,,0,-0.180761727,0,Stimuli/H5sim0.png,Stimuli/H7sim0.png,feat_haus,j,1,0.691445,,1,9,0,9,0,1,,,,,,,,
,,,,,,,,,,,,,,,,,,,,,,,,,,,WR,1,2,2021-01-06_23h09.31.682,configural_featural,2020.2.4,Win32,60,1536,864,,,,,,,,,,,,,,,,,,1,-0.180761727,0,Stimuli/H7sim0.png,Stimuli/H5sim0.png,feat_haus,j,1,0.990345,space,1,10,0,10,0,1,0.750675,,,,,,,
,,,,,,,,,,,,,,,,,,,,,,,,,,,WR,1,2,2021-01-06_23h09.31.682,configural_featural,2020.2.4,Win32,60,1536,864,,,,,,,,,,,,,,,,,,0,-0.180761727,0,Stimuli/H7sim0.png,Stimuli/H6sim0.png,feat_haus,f,0,0.82682,,1,11,0,11,0,1,,,,,,,,
,,,,,,,,,,,,,,,,,,,,,,,,,,,WR,1,2,2021-01-06_23h09.31.682,configural_featural,2020.2.4,Win32,60,1536,864,,,,,,,,,,,,,,,,,,0,-0.180761727,0,Stimuli/H5sim0.png,Stimuli/H6sim0.png,feat_haus,j,1,0.461425,,1,12,0,12,0,1,,,,,,,,
,,,,,,,,,,,,,,,,,,,,,,,,,,,WR,1,2,2021-01-06_23h09.31.682,configural_featural,2020.2.4,Win32,60,1536,864,,,,,,,,,,,,,,,,,,0,-0.180761727,0,Stimuli/H6sim0.png,Stimuli/H8sim0.png,feat_haus,j,1,0.501295,,1,13,0,13,0,1,,,,,,,,
,,,,,,,,,,,,,,,,,,,,,,,,,,,WR,1,2,2021-01-06_23h09.31.682,configural_featural,2020.2.4,Win32,60,1536,864,,,,,,,,,,,,,,,,,,1,-0.180761727,0,Stimuli/H6sim0.png,Stimuli/H7sim0.png,feat_haus,j,1,0.65058,space,1,14,0,14,0,1,0.83662,,,,,,,
,,,,,,,,,,,,,,,,,,,,,,,,,,,WR,1,2,2021-01-06_23h09.31.682,configural_featural,2020.2.4,Win32,60,1536,864,,,,,,,,,,,,,,,,,,0,-0.180761727,1,Stimuli/H6sim0.png,Stimuli/H6sim0.png,feat_haus,f,1,0.645165,,1,15,0,15,0,1,,,,,,,,
,,,,,,,,,,,,,,,,,,,,,,,,,,,WR,1,2,2021-01-06_23h09.31.682,configural_featural,2020.2.4,Win32,60,1536,864,,,,,,,,,,,,,,,,,,0,-0.180761727,1,Stimuli/H7sim0.png,Stimuli/H7sim0.png,feat_haus,f,1,0.69273,,1,16,0,16,0,1,,,,,,,,
,,,,,,,,,,,,,,,,,,,,,,,,,,,WR,1,2,2021-01-06_23h09.31.682,configural_featural,2020.2.4,Win32,60,1536,864,,,,,,,,,,,,,,,,,,0,-0.180761727,1,Stimuli/H7sim0.png,Stimuli/H7sim0.png,feat_haus,f,1,0.951335,,1,17,0,17,0,1,,,,,,,,
,,,,,,,,,,,,,,,,,,,,,,,,,,,WR,1,2,2021-01-06_23h09.31.682,configural_featural,2020.2.4,Win32,60,1536,864,,,,,,,,,,,,,,,,,,0,-0.180761727,0,Stimuli/H7sim0.png,Stimuli/H6sim0.png,feat_haus,j,1,0.441265,,1,18,0,18,0,1,,,,,,,,
,,,,,,,,,,,,,,,,,,,,,,,,,,,WR,1,2,2021-01-06_23h09.31.682,configural_featural,2020.2.4,Win32,60,1536,864,,,,,,,,,,,,,,,,,,0,-0.180761727,1,Stimuli/H6sim0.png,Stimuli/H6sim0.png,feat_haus,f,1,1.351125,,1,19,0,19,0,1,,,,,,,,
,,,,,,,,,,,,,,,,,,,,,,,,,,,WR,1,2,2021-01-06_23h09.31.682,configural_featural,2020.2.4,Win32,60,1536,864,,,,,,,,,,,,,,,,,,1,-0.180761727,0,Stimuli/H7sim0.png,Stimuli/H5sim0.png,feat_haus,j,1,0.38677,space,1,20,0,20,0,1,0.668135,,,,,,,
,,,,,,,,,,,,,,,,,,,,,,,,,,,WR,1,2,2021-01-06_23h09.31.682,configural_featural,2020.2.4,Win32,60,1536,864,,,,,,,,,,,,,,,,,,0,-0.180761727,0,Stimuli/H6sim0.png,Stimuli/H5sim0.png,feat_haus,j,1,0.642275,,1,21,0,21,0,1,,,,,,,,
,,,,,,,,,,,,,,,,,,,,,,,,,,,WR,1,2,2021-01-06_23h09.31.682,configural_featural,2020.2.4,Win32,60,1536,864,,,,,,,,,,,,,,,,,,0,-0.180761727,1,Stimuli/H5sim0.png,Stimuli/H5sim0.png,feat_haus,f,1,0.734945,,1,22,0,22,0,1,,,,,,,,
,,,,,,,,,,,,,,,,,,,,,,,,,,,WR,1,2,2021-01-06_23h09.31.682,configural_featural,2020.2.4,Win32,60,1536,864,,,,,,,,,,,,,,,,,,1,-0.180761727,1,Stimuli/H8sim0.png,Stimuli/H8sim0.png,feat_haus,f,1,0.926355,space,1,23,0,23,0,1,0.616625,,,,,,,
,,,,,,,,,,,,,,,,,,,,,,,,,,,WR,1,2,2021-01-06_23h09.31.682,configural_featural,2020.2.4,Win32,60,1536,864,,,,,,,,,,,,,,,,,,0,-0.180761727,1,Stimuli/H6sim0.png,Stimuli/H6sim0.png,feat_haus,f,1,1.57399,,1,24,0,24,0,1,,,,,,,,
,,,,,,,,,,,,,,,,,,,,,,,,,,,WR,1,2,2021-01-06_23h09.31.682,configural_featural,2020.2.4,Win32,60,1536,864,,,,,,,,,,,,,,,,,,1,-0.180761727,1,Stimuli/H5sim0.png,Stimuli/H5sim0.png,feat_haus,j,0,1.121725,space,1,25,0,25,0,1,0.68911,,,,,,,
,,,,,,,,,,,,,,,,,,,,,,,,,,,WR,1,2,2021-01-06_23h09.31.682,configural_featural,2020.2.4,Win32,60,1536,864,,,,,,,,,,,,,,,,,,0,-0.180761727,0,Stimuli/H5sim0.png,Stimuli/H6sim0.png,feat_haus,j,1,0.75441,,1,26,0,26,0,1,,,,,,,,
,,,,,,,,,,,,,,,,,,,,,,,,,,,WR,1,2,2021-01-06_23h09.31.682,configural_featural,2020.2.4,Win32,60,1536,864,,,,,,,,,,,,,,,,,,0,-0.180761727,0,Stimuli/H5sim0.png,Stimuli/H7sim0.png,feat_haus,j,1,0.48689,,1,27,0,27,0,1,,,,,,,,
,,,,,,,,,,,,,,,,,,,,,,,,,,,WR,1,2,2021-01-06_23h09.31.682,configural_featural,2020.2.4,Win32,60,1536,864,,,,,,,,,,,,,,,,,,0,-0.180761727,0,Stimuli/H5sim0.png,Stimuli/H8sim0.png,feat_haus,j,1,0.491445,,1,28,0,28,0,1,,,,,,,,
,,,,,,,,,,,,,,,,,,,,,,,,,,,WR,1,2,2021-01-06_23h09.31.682,configural_featural,2020.2.4,Win32,60,1536,864,,,,,,,,,,,,,,,,,,0,-0.180761727,1,Stimuli/H8sim0.png,Stimuli/H8sim0.png,feat_haus,j,0,1.02953,,1,29,0,29,0,1,,,,,,,,
,,,,,,,,,,,,,,,,,,,,,,,,,,,WR,1,2,2021-01-06_23h09.31.682,configural_featural,2020.2.4,Win32,60,1536,864,,,,,,,,,,,,,,,,,,0,-0.180761727,1,Stimuli/H7sim0.png,Stimuli/H7sim0.png,feat_haus,j,0,1.095755,,1,30,0,30,0,1,,,,,,,,
,,,,,,,,,,,,,,,,,,,,,,,,,,,WR,1,2,2021-01-06_23h09.31.682,configural_featural,2020.2.4,Win32,60,1536,864,,,,,,,,,,,,,,,,,,1,-0.180761727,0,Stimuli/H8sim0.png,Stimuli/H6sim0.png,feat_haus,j,1,0.69471,space,1,31,0,31,0,1,0.68406,,,,,,,
,,,,,,,,,,,,,,,,,,,,,,,,,,,WR,1,2,2021-01-06_23h09.31.682,configural_featural,2020.2.4,Win32,60,1536,864,,,,,,,,,,,,,,,,,,0,-0.180761727,1,Stimuli/H6sim0.png,Stimuli/H6sim0.png,feat_haus,f,1,0.79126,,1,32,0,32,0,1,,,,,,,,
,,,,,,,,,,,,,,,,,,,,,,,,,,,WR,1,2,2021-01-06_23h09.31.682,configural_featural,2020.2.4,Win32,60,1536,864,,,,,,,,,,,,,,,,,,0,-0.180761727,1,Stimuli/H5sim0.png,Stimuli/H5sim0.png,feat_haus,f,1,0.594875,,1,33,0,33,0,1,,,,,,,,
,,,,,,,,,,,,,,,,,,,,,,,,,,,WR,1,2,2021-01-06_23h09.31.682,configural_featural,2020.2.4,Win32,60,1536,864,,,,,,,,,,,,,,,,,,1,-0.180761727,0,Stimuli/H5sim0.png,Stimuli/H8sim0.png,feat_haus,j,1,0.385665,space,1,34,0,34,0,1,0.701525,,,,,,,
,,,,,,,,,,,,,,,,,,,,,,,,,,,WR,1,2,2021-01-06_23h09.31.682,configural_featural,2020.2.4,Win32,60,1536,864,,,,,,,,,,,,,,,,,,0,-0.180761727,0,Stimuli/H8sim0.png,Stimuli/H6sim0.png,feat_haus,j,1,0.702545,,1,35,0,35,0,1,,,,,,,,
,,,,,,,,,,,,,,,,,,,,,,,,,,,WR,1,2,2021-01-06_23h09.31.682,configural_featural,2020.2.4,Win32,60,1536,864,,,,,,,,,,,,,,,,,,0,-0.180761727,0,Stimuli/H6sim0.png,Stimuli/H8sim0.png,feat_haus,j,1,0.41878,,1,36,0,36,0,1,,,,,,,,
,,,,,,,,,,,,,,,,,,,,,,,,,,,WR,1,2,2021-01-06_23h09.31.682,configural_featural,2020.2.4,Win32,60,1536,864,,,,,,,,,,,,,,,,,,0,-0.180761727,0,Stimuli/H8sim0.png,Stimuli/H7sim0.png,feat_haus,j,1,0.625545,,1,37,0,37,0,1,,,,,,,,
,,,,,,,,,,,,,,,,,,,,,,,,,,,WR,1,2,2021-01-06_23h09.31.682,configural_featural,2020.2.4,Win32,60,1536,864,,,,,,,,,,,,,,,,,,1,-0.180761727,0,Stimuli/H8sim0.png,Stimuli/H5sim0.png,feat_haus,j,1,1.14067,space,1,38,0,38,0,1,0.620715,,,,,,,
,,,,,,,,,,,,,,,,,,,,,,,,,,,WR,1,2,2021-01-06_23h09.31.682,configural_featural,2020.2.4,Win32,60,1536,864,,,,,,,,,,,,,,,,,,0,-0.180761727,1,Stimuli/H7sim0.png,Stimuli/H7sim0.png,feat_haus,f,1,0.77749,,1,39,0,39,0,1,,,,,,,,
,,,,,,,,,,,,,,,,,,,,,,,,,,,WR,1,2,2021-01-06_23h09.31.682,configural_featural,2020.2.4,Win32,60,1536,864,,,,,,,,,,,,,,,,,,1,-0.180761727,1,Stimuli/H8sim0.png,Stimuli/H8sim0.png,feat_haus,f,1,0.624345,space,1,40,0,40,0,1,0.82821,,,,,,,
,,,,,,,,,,,,,,,,,,,,,,,,,,,WR,1,2,2021-01-06_23h09.31.682,configural_featural,2020.2.4,Win32,60,1536,864,,,,,,,,,,,,,,,,,,0,-0.180761727,1,Stimuli/H7sim0.png,Stimuli/H7sim0.png,feat_haus,f,1,0.5678,,1,41,0,41,0,1,,,,,,,,
,,,,,,,,,,,,,,,,,,,,,,,,,,,WR,1,2,2021-01-06_23h09.31.682,configural_featural,2020.2.4,Win32,60,1536,864,,,,,,,,,,,,,,,,,,0,-0.180761727,1,Stimuli/H6sim0.png,Stimuli/H6sim0.png,feat_haus,f,1,0.7922,,1,42,0,42,0,1,,,,,,,,
,,,,,,,,,,,,,,,,,,,,,,,,,,,WR,1,2,2021-01-06_23h09.31.682,configural_featural,2020.2.4,Win32,60,1536,864,,,,,,,,,,,,,,,,,,0,-0.180761727,0,Stimuli/H7sim0.png,Stimuli/H8sim0.png,feat_haus,j,1,0.305415,,1,43,0,43,0,1,,,,,,,,
,,,,,,,,,,,,,,,,,,,,,,,,,,,WR,1,2,2021-01-06_23h09.31.682,configural_featural,2020.2.4,Win32,60,1536,864,,,,,,,,,,,,,,,,,,0,-0.180761727,1,Stimuli/H8sim0.png,Stimuli/H8sim0.png,feat_haus,f,1,0.813645,,1,44,0,44,0,1,,,,,,,,
,,,,,,,,,,,,,,,,,,,,,,,,,,,WR,1,2,2021-01-06_23h09.31.682,configural_featural,2020.2.4,Win32,60,1536,864,,,,,,,,,,,,,,,,,,1,-0.180761727,1,Stimuli/H5sim0.png,Stimuli/H5sim0.png,feat_haus,f,1,0.84409,space,1,45,0,45,0,1,0.68948,,,,,,,
,,,,,,,,,,,,,,,,,,,,,,,,,,,WR,1,2,2021-01-06_23h09.31.682,configural_featural,2020.2.4,Win32,60,1536,864,,,,,,,,,,,,,,,,,,0,-0.180761727,0,Stimuli/H6sim0.png,Stimuli/H7sim0.png,feat_haus,j,1,0.496235,,1,46,0,46,0,1,,,,,,,,
,,,,,,,,,,,,,,,,,,,,,,,,,,,WR,1,2,2021-01-06_23h09.31.682,configural_featural,2020.2.4,Win32,60,1536,864,,,,,,,,,,,,,,,,,,0,-0.180761727,0,Stimuli/H7sim0.png,Stimuli/H8sim0.png,feat_haus,j,1,0.57088,,1,47,0,47,0,1,,,,,,,,
,,,,,,,,,,,,,,,,,,,,,,,,,,,WR,1,2,2021-01-06_23h09.31.682,configural_featural,2020.2.4,Win32,60,1536,864,,,,,,,,,,,,,,,,,,,,,,,,,,,,,,,,,,,0,3,3,3,1,feat_haus,Designs/instructions_haus_1234.png
,,,,,,,,,,,,,,,,,,,,,,,,,,,WR,1,2,2021-01-06_23h09.31.682,configural_featural,2020.2.4,Win32,60,1536,864,,,,,,,,,,,,,,,,,,0,-0.180761727,1,Stimuli/eumu.png,Stimuli/eumu.png,conf_face,j,0,1.11725,,1,0,0,0,0,1,,,,,,,,
,,,,,,,,,,,,,,,,,,,,,,,,,,,WR,1,2,2021-01-06_23h09.31.682,configural_featural,2020.2.4,Win32,60,1536,864,,,,,,,,,,,,,,,,,,0,-0.180761727,0,Stimuli/eumu.png,Stimuli/edmd.png,conf_face,j,1,0.458095,,1,1,0,1,0,1,,,,,,,,
,,,,,,,,,,,,,,,,,,,,,,,,,,,WR,1,2,2021-01-06_23h09.31.682,configural_featural,2020.2.4,Win32,60,1536,864,,,,,,,,,,,,,,,,,,0,-0.180761727,1,Stimuli/eimd.png,Stimuli/eimd.png,conf_face,f,1,0.536425,,1,2,0,2,0,1,,,,,,,,
,,,,,,,,,,,,,,,,,,,,,,,,,,,WR,1,2,2021-01-06_23h09.31.682,configural_featural,2020.2.4,Win32,60,1536,864,,,,,,,,,,,,,,,,,,1,-0.180761727,1,Stimuli/eomu.png,Stimuli/eomu.png,conf_face,f,1,0.436145,space,1,3,0,3,0,1,0.68669,,,,,,,
,,,,,,,,,,,,,,,,,,,,,,,,,,,WR,1,2,2021-01-06_23h09.31.682,configural_featural,2020.2.4,Win32,60,1536,864,,,,,,,,,,,,,,,,,,0,-0.180761727,0,Stimuli/edmd.png,Stimuli/eimd.png,conf_face,j,1,1.190665,,1,4,0,4,0,1,,,,,,,,
,,,,,,,,,,,,,,,,,,,,,,,,,,,WR,1,2,2021-01-06_23h09.31.682,configural_featural,2020.2.4,Win32,60,1536,864,,,,,,,,,,,,,,,,,,0,-0.180761727,0,Stimuli/edmd.png,Stimuli/eomu.png,conf_face,f,0,0.525415,,1,5,0,5,0,1,,,,,,,,
,,,,,,,,,,,,,,,,,,,,,,,,,,,WR,1,2,2021-01-06_23h09.31.682,configural_featural,2020.2.4,Win32,60,1536,864,,,,,,,,,,,,,,,,,,0,-0.180761727,1,Stimuli/edmd.png,Stimuli/edmd.png,conf_face,f,1,0.623405,,1,6,0,6,0,1,,,,,,,,
,,,,,,,,,,,,,,,,,,,,,,,,,,,WR,1,2,2021-01-06_23h09.31.682,configural_featural,2020.2.4,Win32,60,1536,864,,,,,,,,,,,,,,,,,,1,-0.180761727,0,Stimuli/edmd.png,Stimuli/eimd.png,conf_face,j,1,0.39104,space,1,7,0,7,0,1,0.918155,,,,,,,
,,,,,,,,,,,,,,,,,,,,,,,,,,,WR,1,2,2021-01-06_23h09.31.682,configural_featural,2020.2.4,Win32,60,1536,864,,,,,,,,,,,,,,,,,,0,-0.180761727,1,Stimuli/eimd.png,Stimuli/eimd.png,conf_face,f,1,0.784035,,1,8,0,8,0,1,,,,,,,,
,,,,,,,,,,,,,,,,,,,,,,,,,,,WR,1,2,2021-01-06_23h09.31.682,configural_featural,2020.2.4,Win32,60,1536,864,,,,,,,,,,,,,,,,,,0,-0.180761727,0,Stimuli/edmd.png,Stimuli/eomu.png,conf_face,j,1,0.46851,,1,9,0,9,0,1,,,,,,,,
,,,,,,,,,,,,,,,,,,,,,,,,,,,WR,1,2,2021-01-06_23h09.31.682,configural_featural,2020.2.4,Win32,60,1536,864,,,,,,,,,,,,,,,,,,0,-0.180761727,1,Stimuli/eumu.png,Stimuli/eumu.png,conf_face,j,0,0.460045,,1,10,0,10,0,1,,,,,,,,
,,,,,,,,,,,,,,,,,,,,,,,,,,,WR,1,2,2021-01-06_23h09.31.682,configural_featural,2020.2.4,Win32,60,1536,864,,,,,,,,,,,,,,,,,,1,-0.180761727,0,Stimuli/eimd.png,Stimuli/edmd.png,conf_face,j,1,0.809155,space,1,11,0,11,0,1,0.525355,,,,,,,
,,,,,,,,,,,,,,,,,,,,,,,,,,,WR,1,2,2021-01-06_23h09.31.682,configural_featural,2020.2.4,Win32,60,1536,864,,,,,,,,,,,,,,,,,,0,-0.180761727,1,Stimuli/eomu.png,Stimuli/eomu.png,conf_face,j,0,0.36772,,1,12,0,12,0,1,,,,,,,,
,,,,,,,,,,,,,,,,,,,,,,,,,,,WR,1,2,2021-01-06_23h09.31.682,configural_featural,2020.2.4,Win32,60,1536,864,,,,,,,,,,,,,,,,,,0,-0.180761727,0,Stimuli/eomu.png,Stimuli/edmd.png,conf_face,j,1,0.56854,,1,13,0,13,0,1,,,,,,,,
,,,,,,,,,,,,,,,,,,,,,,,,,,,WR,1,2,2021-01-06_23h09.31.682,configural_featural,2020.2.4,Win32,60,1536,864,,,,,,,,,,,,,,,,,,0,-0.180761727,0,Stimuli/eomu.png,Stimuli/eumu.png,conf_face,j,1,0.60866,,1,14,0,14,0,1,,,,,,,,
,,,,,,,,,,,,,,,,,,,,,,,,,,,WR,1,2,2021-01-06_23h09.31.682,configural_featural,2020.2.4,Win32,60,1536,864,,,,,,,,,,,,,,,,,,1,-0.180761727,1,Stimuli/edmd.png,Stimuli/edmd.png,conf_face,j,0,0.617025,space,1,15,0,15,0,1,0.62825,,,,,,,
,,,,,,,,,,,,,,,,,,,,,,,,,,,WR,1,2,2021-01-06_23h09.31.682,configural_featural,2020.2.4,Win32,60,1536,864,,,,,,,,,,,,,,,,,,0,-0.180761727,0,Stimuli/eomu.png,Stimuli/eimd.png,conf_face,j,1,0.81044,,1,16,0,16,0,1,,,,,,,,
,,,,,,,,,,,,,,,,,,,,,,,,,,,WR,1,2,2021-01-06_23h09.31.682,configural_featural,2020.2.4,Win32,60,1536,864,,,,,,,,,,,,,,,,,,0,-0.180761727,1,Stimuli/eumu.png,Stimuli/eumu.png,conf_face,j,0,0.642845,,1,17,0,17,0,1,,,,,,,,
,,,,,,,,,,,,,,,,,,,,,,,,,,,WR,1,2,2021-01-06_23h09.31.682,configural_featural,2020.2.4,Win32,60,1536,864,,,,,,,,,,,,,,,,,,0,-0.180761727,0,Stimuli/eimd.png,Stimuli/eumu.png,conf_face,j,1,0.56981,,1,18,0,18,0,1,,,,,,,,
,,,,,,,,,,,,,,,,,,,,,,,,,,,WR,1,2,2021-01-06_23h09.31.682,configural_featural,2020.2.4,Win32,60,1536,864,,,,,,,,,,,,,,,,,,1,-0.180761727,1,Stimuli/eomu.png,Stimuli/eomu.png,conf_face,j,0,0.609715,space,1,19,0,19,0,1,0.88735,,,,,,,
,,,,,,,,,,,,,,,,,,,,,,,,,,,WR,1,2,2021-01-06_23h09.31.682,configural_featural,2020.2.4,Win32,60,1536,864,,,,,,,,,,,,,,,,,,0,-0.180761727,1,Stimuli/edmd.png,Stimuli/edmd.png,conf_face,f,1,0.73762,,1,20,0,20,0,1,,,,,,,,
,,,,,,,,,,,,,,,,,,,,,,,,,,,WR,1,2,2021-01-06_23h09.31.682,configural_featural,2020.2.4,Win32,60,1536,864,,,,,,,,,,,,,,,,,,0,-0.180761727,0,Stimuli/eomu.png,Stimuli/eimd.png,conf_face,j,1,0.470685,,1,21,0,21,0,1,,,,,,,,
,,,,,,,,,,,,,,,,,,,,,,,,,,,WR,1,2,2021-01-06_23h09.31.682,configural_featural,2020.2.4,Win32,60,1536,864,,,,,,,,,,,,,,,,,,0,-0.180761727,1,Stimuli/eimd.png,Stimuli/eimd.png,conf_face,f,1,0.68348,,1,22,0,22,0,1,,,,,,,,
,,,,,,,,,,,,,,,,,,,,,,,,,,,WR,1,2,2021-01-06_23h09.31.682,configural_featural,2020.2.4,Win32,60,1536,864,,,,,,,,,,,,,,,,,,1,-0.180761727,0,Stimuli/eumu.png,Stimuli/eomu.png,conf_face,f,0,1.138135,space,1,23,0,23,0,1,0.55478,,,,,,,
,,,,,,,,,,,,,,,,,,,,,,,,,,,WR,1,2,2021-01-06_23h09.31.682,configural_featural,2020.2.4,Win32,60,1536,864,,,,,,,,,,,,,,,,,,0,-0.180761727,1,Stimuli/eomu.png,Stimuli/eomu.png,conf_face,j,0,0.70748,,1,24,0,24,0,1,,,,,,,,
,,,,,,,,,,,,,,,,,,,,,,,,,,,WR,1,2,2021-01-06_23h09.31.682,configural_featural,2020.2.4,Win32,60,1536,864,,,,,,,,,,,,,,,,,,1,-0.180761727,0,Stimuli/eimd.png,Stimuli/edmd.png,conf_face,j,1,0.85187,space,1,25,0,25,0,1,0.568095,,,,,,,
,,,,,,,,,,,,,,,,,,,,,,,,,,,WR,1,2,2021-01-06_23h09.31.682,configural_featural,2020.2.4,Win32,60,1536,864,,,,,,,,,,,,,,,,,,0,-0.180761727,0,Stimuli/eomu.png,Stimuli/edmd.png,conf_face,j,1,0.469775,,1,26,0,26,0,1,,,,,,,,
,,,,,,,,,,,,,,,,,,,,,,,,,,,WR,1,2,2021-01-06_23h09.31.682,configural_featural,2020.2.4,Win32,60,1536,864,,,,,,,,,,,,,,,,,,0,-0.180761727,1,Stimuli/eumu.png,Stimuli/eumu.png,conf_face,j,0,0.6691,,1,27,0,27,0,1,,,,,,,,
,,,,,,,,,,,,,,,,,,,,,,,,,,,WR,1,2,2021-01-06_23h09.31.682,configural_featural,2020.2.4,Win32,60,1536,864,,,,,,,,,,,,,,,,,,0,-0.180761727,0,Stimuli/eumu.png,Stimuli/eimd.png,conf_face,j,1,0.62354,,1,28,0,28,0,1,,,,,,,,
,,,,,,,,,,,,,,,,,,,,,,,,,,,WR,1,2,2021-01-06_23h09.31.682,configural_featural,2020.2.4,Win32,60,1536,864,,,,,,,,,,,,,,,,,,0,-0.180761727,1,Stimuli/eimd.png,Stimuli/eimd.png,conf_face,f,1,0.74417,,1,29,0,29,0,1,,,,,,,,
,,,,,,,,,,,,,,,,,,,,,,,,,,,WR,1,2,2021-01-06_23h09.31.682,configural_featural,2020.2.4,Win32,60,1536,864,,,,,,,,,,,,,,,,,,1,-0.180761727,1,Stimuli/edmd.png,Stimuli/edmd.png,conf_face,j,0,0.5768,space,1,30,0,30,0,1,0.79518,,,,,,,
,,,,,,,,,,,,,,,,,,,,,,,,,,,WR,1,2,2021-01-06_23h09.31.682,configural_featural,2020.2.4,Win32,60,1536,864,,,,,,,,,,,,,,,,,,0,-0.180761727,0,Stimuli/eimd.png,Stimuli/eomu.png,conf_face,j,1,0.61749,,1,31,0,31,0,1,,,,,,,,
,,,,,,,,,,,,,,,,,,,,,,,,,,,WR,1,2,2021-01-06_23h09.31.682,configural_featural,2020.2.4,Win32,60,1536,864,,,,,,,,,,,,,,,,,,0,-0.180761727,0,Stimuli/edmd.png,Stimuli/eumu.png,conf_face,j,1,0.75942,,1,32,0,32,0,1,,,,,,,,
,,,,,,,,,,,,,,,,,,,,,,,,,,,WR,1,2,2021-01-06_23h09.31.682,configural_featural,2020.2.4,Win32,60,1536,864,,,,,,,,,,,,,,,,,,0,-0.180761727,0,Stimuli/edmd.png,Stimuli/eumu.png,conf_face,f,0,0.727265,,1,33,0,33,0,1,,,,,,,,
,,,,,,,,,,,,,,,,,,,,,,,,,,,WR,1,2,2021-01-06_23h09.31.682,configural_featural,2020.2.4,Win32,60,1536,864,,,,,,,,,,,,,,,,,,1,-0.180761727,1,Stimuli/eimd.png,Stimuli/eimd.png,conf_face,j,0,0.603045,space,1,34,0,34,0,1,0.678,,,,,,,
,,,,,,,,,,,,,,,,,,,,,,,,,,,WR,1,2,2021-01-06_23h09.31.682,configural_featural,2020.2.4,Win32,60,1536,864,,,,,,,,,,,,,,,,,,0,-0.180761727,1,Stimuli/edmd.png,Stimuli/edmd.png,conf_face,j,0,0.90315,,1,35,0,35,0,1,,,,,,,,
,,,,,,,,,,,,,,,,,,,,,,,,,,,WR,1,2,2021-01-06_23h09.31.682,configural_featural,2020.2.4,Win32,60,1536,864,,,,,,,,,,,,,,,,,,0,-0.180761727,0,Stimuli/eimd.png,Stimuli/eomu.png,conf_face,j,1,0.62541,,1,36,0,36,0,1,,,,,,,,
,,,,,,,,,,,,,,,,,,,,,,,,,,,WR,1,2,2021-01-06_23h09.31.682,configural_featural,2020.2.4,Win32,60,1536,864,,,,,,,,,,,,,,,,,,1,-0.180761727,0,Stimuli/eomu.png,Stimuli/eumu.png,conf_face,j,1,0.486545,space,1,37,0,37,0,1,0.75113,,,,,,,
,,,,,,,,,,,,,,,,,,,,,,,,,,,WR,1,2,2021-01-06_23h09.31.682,configural_featural,2020.2.4,Win32,60,1536,864,,,,,,,,,,,,,,,,,,0,-0.180761727,0,Stimuli/eumu.png,Stimuli/edmd.png,conf_face,j,1,0.62621,,1,38,0,38,0,1,,,,,,,,
,,,,,,,,,,,,,,,,,,,,,,,,,,,WR,1,2,2021-01-06_23h09.31.682,configural_featural,2020.2.4,Win32,60,1536,864,,,,,,,,,,,,,,,,,,1,-0.180761727,1,Stimuli/eomu.png,Stimuli/eomu.png,conf_face,f,1,0.67313,space,1,39,0,39,0,1,0.59517,,,,,,,
,,,,,,,,,,,,,,,,,,,,,,,,,,,WR,1,2,2021-01-06_23h09.31.682,configural_featural,2020.2.4,Win32,60,1536,864,,,,,,,,,,,,,,,,,,0,-0.180761727,1,Stimuli/eumu.png,Stimuli/eumu.png,conf_face,j,0,1.4332,,1,40,0,40,0,1,,,,,,,,
,,,,,,,,,,,,,,,,,,,,,,,,,,,WR,1,2,2021-01-06_23h09.31.682,configural_featural,2020.2.4,Win32,60,1536,864,,,,,,,,,,,,,,,,,,0,-0.180761727,1,Stimuli/edmd.png,Stimuli/edmd.png,conf_face,j,0,0.844255,,1,41,0,41,0,1,,,,,,,,
,,,,,,,,,,,,,,,,,,,,,,,,,,,WR,1,2,2021-01-06_23h09.31.682,configural_featural,2020.2.4,Win32,60,1536,864,,,,,,,,,,,,,,,,,,0,-0.180761727,1,Stimuli/eomu.png,Stimuli/eomu.png,conf_face,j,0,0.66722,,1,42,0,42,0,1,,,,,,,,
,,,,,,,,,,,,,,,,,,,,,,,,,,,WR,1,2,2021-01-06_23h09.31.682,configural_featural,2020.2.4,Win32,60,1536,864,,,,,,,,,,,,,,,,,,0,-0.180761727,1,Stimuli/eumu.png,Stimuli/eumu.png,conf_face,f,1,0.744205,,1,43,0,43,0,1,,,,,,,,
,,,,,,,,,,,,,,,,,,,,,,,,,,,WR,1,2,2021-01-06_23h09.31.682,configural_featural,2020.2.4,Win32,60,1536,864,,,,,,,,,,,,,,,,,,0,-0.180761727,0,Stimuli/eimd.png,Stimuli/eumu.png,conf_face,j,1,0.842995,,1,44,0,44,0,1,,,,,,,,
,,,,,,,,,,,,,,,,,,,,,,,,,,,WR,1,2,2021-01-06_23h09.31.682,configural_featural,2020.2.4,Win32,60,1536,864,,,,,,,,,,,,,,,,,,1,-0.180761727,1,Stimuli/eimd.png,Stimuli/eimd.png,conf_face,f,1,0.57041,space,1,45,0,45,0,1,0.622965,,,,,,,
,,,,,,,,,,,,,,,,,,,,,,,,,,,WR,1,2,2021-01-06_23h09.31.682,configural_featural,2020.2.4,Win32,60,1536,864,,,,,,,,,,,,,,,,,,0,-0.180761727,0,Stimuli/eumu.png,Stimuli/eimd.png,conf_face,f,0,0.50566,,1,46,0,46,0,1,,,,,,,,
,,,,,,,,,,,,,,,,,,,,,,,,,,,WR,1,2,2021-01-06_23h09.31.682,configural_featural,2020.2.4,Win32,60,1536,864,,,,,,,,,,,,,,,,,,0,-0.180761727,0,Stimuli/eumu.png,Stimuli/eomu.png,conf_face,j,1,0.660825,,1,47,0,47,0,1,,,,,,,,
,,,,,,,,,,,,,,,,,,,,,,,,,,,WR,1,2,2021-01-06_23h09.31.682,configural_featural,2020.2.4,Win32,60,1536,864,,,,,,,,,,,,,,,,,,,,,,,,,,,,,,,,,,,1,0,4,0,1,conf_face,Designs/instructions_face_1234.png
,,,,,,,,,,,,,,,,,,,,,,,,,,,WR,1,2,2021-01-06_23h09.31.682,configural_featural,2020.2.4,Win32,60,1536,864,,,,,,,,,,,,,,,,,,0,0.180761727,1,Stimuli/H-8sim0.png,Stimuli/H-8sim0.png,conf_haus,j,0,0.74416,,1,0,0,0,0,1,,,,,,,,
,,,,,,,,,,,,,,,,,,,,,,,,,,,WR,1,2,2021-01-06_23h09.31.682,configural_featural,2020.2.4,Win32,60,1536,864,,,,,,,,,,,,,,,,,,0,0.180761727,1,Stimuli/H-8sim1.png,Stimuli/H-8sim1.png,conf_haus,f,1,0.6519,,1,1,0,1,0,1,,,,,,,,
,,,,,,,,,,,,,,,,,,,,,,,,,,,WR,1,2,2021-01-06_23h09.31.682,configural_featural,2020.2.4,Win32,60,1536,864,,,,,,,,,,,,,,,,,,1,0.180761727,0,Stimuli/H-8sim2.png,Stimuli/H-8sim1.png,conf_haus,j,1,0.65978,space,1,2,0,2,0,1,0.55361,,,,,,,
,,,,,,,,,,,,,,,,,,,,,,,,,,,WR,1,2,2021-01-06_23h09.31.682,configural_featural,2020.2.4,Win32,60,1536,864,,,,,,,,,,,,,,,,,,0,0.180761727,1,Stimuli/H-8sim2.png,Stimuli/H-8sim2.png,conf_haus,f,1,0.63694,,1,3,0,3,0,1,,,,,,,,
,,,,,,,,,,,,,,,,,,,,,,,,,,,WR,1,2,2021-01-06_23h09.31.682,configural_featural,2020.2.4,Win32,60,1536,864,,,,,,,,,,,,,,,,,,0,0.180761727,0,Stimuli/H-8sim1.png,Stimuli/H-8sim0.png,conf_haus,f,0,0.540055,,1,4,0,4,0,1,,,,,,,,
,,,,,,,,,,,,,,,,,,,,,,,,,,,WR,1,2,2021-01-06_23h09.31.682,configural_featural,2020.2.4,Win32,60,1536,864,,,,,,,,,,,,,,,,,,0,0.180761727,0,Stimuli/H-8sim0.png,Stimuli/H-8sim2.png,conf_haus,f,0,0.453145,,1,5,0,5,0,1,,,,,,,,
,,,,,,,,,,,,,,,,,,,,,,,,,,,WR,1,2,2021-01-06_23h09.31.682,configural_featural,2020.2.4,Win32,60,1536,864,,,,,,,,,,,,,,,,,,1,0.180761727,1,Stimuli/H-8sim3.png,Stimuli/H-8sim3.png,conf_haus,f,1,0.541325,space,1,6,0,6,0,1,0.589595,,,,,,,
,,,,,,,,,,,,,,,,,,,,,,,,,,,WR,1,2,2021-01-06_23h09.31.682,configural_featural,2020.2.4,Win32,60,1536,864,,,,,,,,,,,,,,,,,,0,0.180761727,0,Stimuli/H-8sim1.png,Stimuli/H-8sim2.png,conf_haus,f,0,0.40683,,1,7,0,7,0,1,,,,,,,,
,,,,,,,,,,,,,,,,,,,,,,,,,,,WR,1,2,2021-01-06_23h09.31.682,configural_featural,2020.2.4,Win32,60,1536,864,,,,,,,,,,,,,,,,,,0,0.180761727,0,Stimuli/H-8sim0.png,Stimuli/H-8sim1.png,conf_haus,j,1,0.81868,,1,8,0,8,0,1,,,,,,,,
,,,,,,,,,,,,,,,,,,,,,,,,,,,WR,1,2,2021-01-06_23h09.31.682,configural_featural,2020.2.4,Win32,60,1536,864,,,,,,,,,,,,,,,,,,0,0.180761727,1,Stimuli/H-8sim2.png,Stimuli/H-8sim2.png,conf_haus,f,1,0.791975,,1,9,0,9,0,1,,,,,,,,
,,,,,,,,,,,,,,,,,,,,,,,,,,,WR,1,2,2021-01-06_23h09.31.682,configural_featural,2020.2.4,Win32,60,1536,864,,,,,,,,,,,,,,,,,,1,0.180761727,1,Stimuli/H-8sim0.png,Stimuli/H-8sim0.png,conf_haus,j,0,0.93475,space,1,10,0,10,0,1,0.622025,,,,,,,
,,,,,,,,,,,,,,,,,,,,,,,,,,,WR,1,2,2021-01-06_23h09.31.682,configural_featural,2020.2.4,Win32,60,1536,864,,,,,,,,,,,,,,,,,,0,0.180761727,0,Stimuli/H-8sim3.png,Stimuli/H-8sim0.png,conf_haus,j,1,0.461495,,1,11,0,11,0,1,,,,,,,,
,,,,,,,,,,,,,,,,,,,,,,,,,,,WR,1,2,2021-01-06_23h09.31.682,configural_featural,2020.2.4,Win32,60,1536,864,,,,,,,,,,,,,,,,,,0,0.180761727,1,Stimuli/H-8sim1.png,Stimuli/H-8sim1.png,conf_haus,j,0,0.53449,,1,12,0,12,0,1,,,,,,,,
,,,,,,,,,,,,,,,,,,,,,,,,,,,WR,1,2,2021-01-06_23h09.31.682,configural_featural,2020.2.4,Win32,60,1536,864,,,,,,,,,,,,,,,,,,0,0.180761727,1,Stimuli/H-8sim3.png,Stimuli/H-8sim3.png,conf_haus,j,0,1.68351,,1,13,0,13,0,1,,,,,,,,
,,,,,,,,,,,,,,,,,,,,,,,,,,,WR,1,2,2021-01-06_23h09.31.682,configural_featural,2020.2.4,Win32,60,1536,864,,,,,,,,,,,,,,,,,,0,0.180761727,0,Stimuli/H-8sim1.png,Stimuli/H-8sim0.png,conf_haus,j,1,0.374995,,1,14,0,14,0,1,,,,,,,,
,,,,,,,,,,,,,,,,,,,,,,,,,,,WR,1,2,2021-01-06_23h09.31.682,configural_featural,2020.2.4,Win32,60,1536,864,,,,,,,,,,,,,,,,,,1,0.180761727,0,Stimuli/H-8sim1.png,Stimuli/H-8sim2.png,conf_haus,j,1,0.484655,space,1,15,0,15,0,1,0.74393,,,,,,,
,,,,,,,,,,,,,,,,,,,,,,,,,,,WR,1,2,2021-01-06_23h09.31.682,configural_featural,2020.2.4,Win32,60,1536,864,,,,,,,,,,,,,,,,,,0,0.180761727,0,Stimuli/H-8sim0.png,Stimuli/H-8sim2.png,conf_haus,j,1,0.684875,,1,16,0,16,0,1,,,,,,,,
,,,,,,,,,,,,,,,,,,,,,,,,,,,WR,1,2,2021-01-06_23h09.31.682,configural_featural,2020.2.4,Win32,60,1536,864,,,,,,,,,,,,,,,,,,0,0.180761727,1,Stimuli/H-8sim3.png,Stimuli/H-8sim3.png,conf_haus,j,0,0.39649,,1,17,0,17,0,1,,,,,,,,
,,,,,,,,,,,,,,,,,,,,,,,,,,,WR,1,2,2021-01-06_23h09.31.682,configural_featural,2020.2.4,Win32,60,1536,864,,,,,,,,,,,,,,,,,,0,0.180761727,1,Stimuli/H-8sim2.png,Stimuli/H-8sim2.png,conf_haus,j,0,0.72602,,1,18,0,18,0,1,,,,,,,,
,,,,,,,,,,,,,,,,,,,,,,,,,,,WR,1,2,2021-01-06_23h09.31.682,configural_featural,2020.2.4,Win32,60,1536,864,,,,,,,,,,,,,,,,,,1,0.180761727,1,Stimuli/H-8sim1.png,Stimuli/H-8sim1.png,conf_haus,j,0,0.408375,space,1,19,0,19,0,1,0.668285,,,,,,,
,,,,,,,,,,,,,,,,,,,,,,,,,,,WR,1,2,2021-01-06_23h09.31.682,configural_featural,2020.2.4,Win32,60,1536,864,,,,,,,,,,,,,,,,,,0,0.180761727,0,Stimuli/H-8sim0.png,Stimuli/H-8sim1.png,conf_haus,j,1,0.5576,,1,20,0,20,0,1,,,,,,,,
,,,,,,,,,,,,,,,,,,,,,,,,,,,WR,1,2,2021-01-06_23h09.31.682,configural_featural,2020.2.4,Win32,60,1536,864,,,,,,,,,,,,,,,,,,0,0.180761727,0,Stimuli/H-8sim1.png,Stimuli/H-8sim3.png,conf_haus,j,1,0.41981,,1,21,0,21,0,1,,,,,,,,
,,,,,,,,,,,,,,,,,,,,,,,,,,,WR,1,2,2021-01-06_23h09.31.682,configural_featural,2020.2.4,Win32,60,1536,864,,,,,,,,,,,,,,,,,,1,0.180761727,0,Stimuli/H-8sim3.png,Stimuli/H-8sim0.png,conf_haus,j,1,0.350725,space,1,22,0,22,0,1,0.642435,,,,,,,
,,,,,,,,,,,,,,,,,,,,,,,,,,,WR,1,2,2021-01-06_23h09.31.682,configural_featural,2020.2.4,Win32,60,1536,864,,,,,,,,,,,,,,,,,,0,0.180761727,1,Stimuli/H-8sim0.png,Stimuli/H-8sim0.png,conf_haus,j,0,0.49651,,1,23,0,23,0,1,,,,,,,,
,,,,,,,,,,,,,,,,,,,,,,,,,,,WR,1,2,2021-01-06_23h09.31.682,configural_featural,2020.2.4,Win32,60,1536,864,,,,,,,,,,,,,,,,,,0,0.180761727,0,Stimuli/H-8sim2.png,Stimuli/H-8sim1.png,conf_haus,j,1,0.568825,,1,24,0,24,0,1,,,,,,,,
,,,,,,,,,,,,,,,,,,,,,,,,,,,WR,1,2,2021-01-06_23h09.31.682,configural_featural,2020.2.4,Win32,60,1536,864,,,,,,,,,,,,,,,,,,1,0.180761727,1,Stimuli/H-8sim2.png,Stimuli/H-8sim2.png,conf_haus,j,0,1.466805,space,1,25,0,25,0,1,0.521075,,,,,,,
,,,,,,,,,,,,,,,,,,,,,,,,,,,WR,1,2,2021-01-06_23h09.31.682,configural_featural,2020.2.4,Win32,60,1536,864,,,,,,,,,,,,,,,,,,0,0.180761727,0,Stimuli/H-8sim3.png,Stimuli/H-8sim1.png,conf_haus,j,1,0.168145,,1,26,0,26,0,1,,,,,,,,
,,,,,,,,,,,,,,,,,,,,,,,,,,,WR,1,2,2021-01-06_23h09.31.682,configural_featural,2020.2.4,Win32,60,1536,864,,,,,,,,,,,,,,,,,,0,0.180761727,0,Stimuli/H-8sim0.png,Stimuli/H-8sim3.png,conf_haus,j,1,0.55808,,1,27,0,27,0,1,,,,,,,,
,,,,,,,,,,,,,,,,,,,,,,,,,,,WR,1,2,2021-01-06_23h09.31.682,configural_featural,2020.2.4,Win32,60,1536,864,,,,,,,,,,,,,,,,,,0,0.180761727,1,Stimuli/H-8sim1.png,Stimuli/H-8sim1.png,conf_haus,j,0,0.65627,,1,28,0,28,0,1,,,,,,,,
,,,,,,,,,,,,,,,,,,,,,,,,,,,WR,1,2,2021-01-06_23h09.31.682,configural_featural,2020.2.4,Win32,60,1536,864,,,,,,,,,,,,,,,,,,0,0.180761727,1,Stimuli/H-8sim0.png,Stimuli/H-8sim0.png,conf_haus,j,0,0.69146,,1,29,0,29,0,1,,,,,,,,
,,,,,,,,,,,,,,,,,,,,,,,,,,,WR,1,2,2021-01-06_23h09.31.682,configural_featural,2020.2.4,Win32,60,1536,864,,,,,,,,,,,,,,,,,,1,0.180761727,0,Stimuli/H-8sim2.png,Stimuli/H-8sim3.png,conf_haus,j,1,0.28876,space,1,30,0,30,0,1,0.530305,,,,,,,
,,,,,,,,,,,,,,,,,,,,,,,,,,,WR,1,2,2021-01-06_23h09.31.682,configural_featural,2020.2.4,Win32,60,1536,864,,,,,,,,,,,,,,,,,,0,0.180761727,0,Stimuli/H-8sim2.png,Stimuli/H-8sim3.png,conf_haus,j,1,0.470255,,1,31,0,31,0,1,,,,,,,,
,,,,,,,,,,,,,,,,,,,,,,,,,,,WR,1,2,2021-01-06_23h09.31.682,configural_featural,2020.2.4,Win32,60,1536,864,,,,,,,,,,,,,,,,,,0,0.180761727,1,Stimuli/H-8sim3.png,Stimuli/H-8sim3.png,conf_haus,j,0,0.382815,,1,32,0,32,0,1,,,,,,,,
,,,,,,,,,,,,,,,,,,,,,,,,,,,WR,1,2,2021-01-06_23h09.31.682,configural_featural,2020.2.4,Win32,60,1536,864,,,,,,,,,,,,,,,,,,1,0.180761727,1,Stimuli/H-8sim1.png,Stimuli/H-8sim1.png,conf_haus,j,0,0.33554,space,1,33,0,33,0,1,0.811905,,,,,,,
,,,,,,,,,,,,,,,,,,,,,,,,,,,WR,1,2,2021-01-06_23h09.31.682,configural_featural,2020.2.4,Win32,60,1536,864,,,,,,,,,,,,,,,,,,0,0.180761727,0,Stimuli/H-8sim2.png,Stimuli/H-8sim0.png,conf_haus,j,1,0.28655,,1,34,0,34,0,1,,,,,,,,
,,,,,,,,,,,,,,,,,,,,,,,,,,,WR,1,2,2021-01-06_23h09.31.682,configural_featural,2020.2.4,Win32,60,1536,864,,,,,,,,,,,,,,,,,,0,0.180761727,1,Stimuli/H-8sim3.png,Stimuli/H-8sim3.png,conf_haus,j,0,0.35111,,1,35,0,35,0,1,,,,,,,,
,,,,,,,,,,,,,,,,,,,,,,,,,,,WR,1,2,2021-01-06_23h09.31.682,configural_featural,2020.2.4,Win32,60,1536,864,,,,,,,,,,,,,,,,,,0,0.180761727,1,Stimuli/H-8sim2.png,Stimuli/H-8sim2.png,conf_haus,j,0,0.428695,,1,36,0,36,0,1,,,,,,,,
,,,,,,,,,,,,,,,,,,,,,,,,,,,WR,1,2,2021-01-06_23h09.31.682,configural_featural,2020.2.4,Win32,60,1536,864,,,,,,,,,,,,,,,,,,1,0.180761727,0,Stimuli/H-8sim3.png,Stimuli/H-8sim2.png,conf_haus,j,1,0.22132,space,1,37,0,37,0,1,0.72101,,,,,,,
,,,,,,,,,,,,,,,,,,,,,,,,,,,WR,1,2,2021-01-06_23h09.31.682,configural_featural,2020.2.4,Win32,60,1536,864,,,,,,,,,,,,,,,,,,0,0.180761727,0,Stimuli/H-8sim2.png,Stimuli/H-8sim0.png,conf_haus,j,1,0.500485,,1,38,0,38,0,1,,,,,,,,
,,,,,,,,,,,,,,,,,,,,,,,,,,,WR,1,2,2021-01-06_23h09.31.682,configural_featural,2020.2.4,Win32,60,1536,864,,,,,,,,,,,,,,,,,,0,0.180761727,0,Stimuli/H-8sim0.png,Stimuli/H-8sim3.png,conf_haus,j,1,0.51978,,1,39,0,39,0,1,,,,,,,,
,,,,,,,,,,,,,,,,,,,,,,,,,,,WR,1,2,2021-01-06_23h09.31.682,configural_featural,2020.2.4,Win32,60,1536,864,,,,,,,,,,,,,,,,,,1,0.180761727,1,Stimuli/H-8sim0.png,Stimuli/H-8sim0.png,conf_haus,j,0,0.235555,,0,40,0,40,0,1,,,,,,,,
,,,,,,,,,,,,,,,,,,,,,,,,,,,WR,1,2,2021-01-06_23h09.31.682,configural_featural,2020.2.4,Win32,60,1536,864,,,,,,,,,,,,,,,,,,0,0.180761727,1,Stimuli/H-8sim1.png,Stimuli/H-8sim1.png,conf_haus,f,1,0.703095,,1,41,0,41,0,1,,,,,,,,
,,,,,,,,,,,,,,,,,,,,,,,,,,,WR,1,2,2021-01-06_23h09.31.682,configural_featural,2020.2.4,Win32,60,1536,864,,,,,,,,,,,,,,,,,,0,0.180761727,0,Stimuli/H-8sim1.png,Stimuli/H-8sim3.png,conf_haus,j,1,0.619955,,1,42,0,42,0,1,,,,,,,,
,,,,,,,,,,,,,,,,,,,,,,,,,,,WR,1,2,2021-01-06_23h09.31.682,configural_featural,2020.2.4,Win32,60,1536,864,,,,,,,,,,,,,,,,,,0,0.180761727,1,Stimuli/H-8sim0.png,Stimuli/H-8sim0.png,conf_haus,f,1,0.496645,,1,43,0,43,0,1,,,,,,,,
,,,,,,,,,,,,,,,,,,,,,,,,,,,WR,1,2,2021-01-06_23h09.31.682,configural_featural,2020.2.4,Win32,60,1536,864,,,,,,,,,,,,,,,,,,1,0.180761727,0,Stimuli/H-8sim3.png,Stimuli/H-8sim1.png,conf_haus,f,0,0.8163,space,1,44,0,44,0,1,0.52907,,,,,,,
,,,,,,,,,,,,,,,,,,,,,,,,,,,WR,1,2,2021-01-06_23h09.31.682,configural_featural,2020.2.4,Win32,60,1536,864,,,,,,,,,,,,,,,,,,0,0.180761727,1,Stimuli/H-8sim2.png,Stimuli/H-8sim2.png,conf_haus,j,0,0.62947,,1,45,0,45,0,1,,,,,,,,
,,,,,,,,,,,,,,,,,,,,,,,,,,,WR,1,2,2021-01-06_23h09.31.682,configural_featural,2020.2.4,Win32,60,1536,864,,,,,,,,,,,,,,,,,,0,0.180761727,0,Stimuli/H-8sim3.png,Stimuli/H-8sim2.png,conf_haus,j,1,1.260085,,1,46,0,46,0,1,,,,,,,,
,,,,,,,,,,,,,,,,,,,,,,,,,,,WR,1,2,2021-01-06_23h09.31.682,configural_featural,2020.2.4,Win32,60,1536,864,,,,,,,,,,,,,,,,,,0,0.180761727,1,Stimuli/H-8sim3.png,Stimuli/H-8sim3.png,conf_haus,j,0,3.150855,,1,47,0,47,0,1,,,,,,,,
,,,,,,,,,,,,,,,,,,,,,,,,,,,WR,1,2,2021-01-06_23h09.31.682,configural_featural,2020.2.4,Win32,60,1536,864,,,,,,,,,,,,,,,,,,,,,,,,,,,,,,,,,,,1,1,5,1,1,conf_haus,Designs/instructions_haus_1234.png
,,,,,,,,,,,,,,,,,,,,,,,,,,,WR,1,2,2021-01-06_23h09.31.682,configural_featural,2020.2.4,Win32,60,1536,864,,,,,,,,,,,,,,,,,,0,0.180761727,0,Stimuli/f131.png,Stimuli/f24.png,feat_face,j,1,0.68684,,1,0,0,0,0,1,,,,,,,,
,,,,,,,,,,,,,,,,,,,,,,,,,,,WR,1,2,2021-01-06_23h09.31.682,configural_featural,2020.2.4,Win32,60,1536,864,,,,,,,,,,,,,,,,,,0,0.180761727,0,Stimuli/f142.png,Stimuli/f15.png,feat_face,j,1,0.41335,,1,1,0,1,0,1,,,,,,,,
,,,,,,,,,,,,,,,,,,,,,,,,,,,WR,1,2,2021-01-06_23h09.31.682,configural_featural,2020.2.4,Win32,60,1536,864,,,,,,,,,,,,,,,,,,0,0.180761727,1,Stimuli/f142.png,Stimuli/f142.png,feat_face,j,0,0.33408,,1,2,0,2,0,1,,,,,,,,
,,,,,,,,,,,,,,,,,,,,,,,,,,,WR,1,2,2021-01-06_23h09.31.682,configural_featural,2020.2.4,Win32,60,1536,864,,,,,,,,,,,,,,,,,,0,0.180761727,0,Stimuli/f142.png,Stimuli/f131.png,feat_face,j,1,0.41898,,1,3,0,3,0,1,,,,,,,,
,,,,,,,,,,,,,,,,,,,,,,,,,,,WR,1,2,2021-01-06_23h09.31.682,configural_featural,2020.2.4,Win32,60,1536,864,,,,,,,,,,,,,,,,,,1,0.180761727,1,Stimuli/f131.png,Stimuli/f131.png,feat_face,j,0,0.677985,space,1,4,0,4,0,1,0.66777,,,,,,,
,,,,,,,,,,,,,,,,,,,,,,,,,,,WR,1,2,2021-01-06_23h09.31.682,configural_featural,2020.2.4,Win32,60,1536,864,,,,,,,,,,,,,,,,,,0,0.180761727,1,Stimuli/f24.png,Stimuli/f24.png,feat_face,f,1,0.821295,,1,5,0,5,0,1,,,,,,,,
,,,,,,,,,,,,,,,,,,,,,,,,,,,WR,1,2,2021-01-06_23h09.31.682,configural_featural,2020.2.4,Win32,60,1536,864,,,,,,,,,,,,,,,,,,1,0.180761727,1,Stimuli/f15.png,Stimuli/f15.png,feat_face,j,0,0.644575,space,1,6,0,6,0,1,1.15282,,,,,,,
,,,,,,,,,,,,,,,,,,,,,,,,,,,WR,1,2,2021-01-06_23h09.31.682,configural_featural,2020.2.4,Win32,60,1536,864,,,,,,,,,,,,,,,,,,0,0.180761727,1,Stimuli/f142.png,Stimuli/f142.png,feat_face,j,0,0.46108,,1,7,0,7,0,1,,,,,,,,
,,,,,,,,,,,,,,,,,,,,,,,,,,,WR,1,2,2021-01-06_23h09.31.682,configural_featural,2020.2.4,Win32,60,1536,864,,,,,,,,,,,,,,,,,,0,0.180761727,0,Stimuli/f15.png,Stimuli/f131.png,feat_face,j,1,0.526415,,1,8,0,8,0,1,,,,,,,,
,,,,,,,,,,,,,,,,,,,,,,,,,,,WR,1,2,2021-01-06_23h09.31.682,configural_featural,2020.2.4,Win32,60,1536,864,,,,,,,,,,,,,,,,,,0,0.180761727,0,Stimuli/f142.png,Stimuli/f24.png,feat_face,j,1,0.58924,,1,9,0,9,0,1,,,,,,,,
,,,,,,,,,,,,,,,,,,,,,,,,,,,WR,1,2,2021-01-06_23h09.31.682,configural_featural,2020.2.4,Win32,60,1536,864,,,,,,,,,,,,,,,,,,0,0.180761727,1,Stimuli/f15.png,Stimuli/f15.png,feat_face,f,1,0.702355,,1,10,0,10,0,1,,,,,,,,
,,,,,,,,,,,,,,,,,,,,,,,,,,,WR,1,2,2021-01-06_23h09.31.682,configural_featural,2020.2.4,Win32,60,1536,864,,,,,,,,,,,,,,,,,,1,0.180761727,0,Stimuli/f131.png,Stimuli/f15.png,feat_face,j,1,0.350285,space,1,11,0,11,0,1,0.66277,,,,,,,
,,,,,,,,,,,,,,,,,,,,,,,,,,,WR,1,2,2021-01-06_23h09.31.682,configural_featural,2020.2.4,Win32,60,1536,864,,,,,,,,,,,,,,,,,,0,0.180761727,1,Stimuli/f24.png,Stimuli/f24.png,feat_face,j,0,0.75166,,1,12,0,12,0,1,,,,,,,,
,,,,,,,,,,,,,,,,,,,,,,,,,,,WR,1,2,2021-01-06_23h09.31.682,configural_featural,2020.2.4,Win32,60,1536,864,,,,,,,,,,,,,,,,,,0,0.180761727,1,Stimuli/f131.png,Stimuli/f131.png,feat_face,j,0,0.43753,,1,13,0,13,0,1,,,,,,,,
,,,,,,,,,,,,,,,,,,,,,,,,,,,WR,1,2,2021-01-06_23h09.31.682,configural_featural,2020.2.4,Win32,60,1536,864,,,,,,,,,,,,,,,,,,0,0.180761727,0,Stimuli/f24.png,Stimuli/f15.png,feat_face,j,1,0.618305,,1,14,0,14,0,1,,,,,,,,
,,,,,,,,,,,,,,,,,,,,,,,,,,,WR,1,2,2021-01-06_23h09.31.682,configural_featural,2020.2.4,Win32,60,1536,864,,,,,,,,,,,,,,,,,,1,0.180761727,0,Stimuli/f131.png,Stimuli/f24.png,feat_face,f,0,0.687745,space,1,15,0,15,0,1,0.62092,,,,,,,
,,,,,,,,,,,,,,,,,,,,,,,,,,,WR,1,2,2021-01-06_23h09.31.682,configural_featural,2020.2.4,Win32,60,1536,864,,,,,,,,,,,,,,,,,,0,0.180761727,0,Stimuli/f15.png,Stimuli/f131.png,feat_face,j,1,0.526635,,1,16,0,16,0,1,,,,,,,,
,,,,,,,,,,,,,,,,,,,,,,,,,,,WR,1,2,2021-01-06_23h09.31.682,configural_featural,2020.2.4,Win32,60,1536,864,,,,,,,,,,,,,,,,,,0,0.180761727,1,Stimuli/f142.png,Stimuli/f142.png,feat_face,j,0,0.442795,,1,17,0,17,0,1,,,,,,,,
,,,,,,,,,,,,,,,,,,,,,,,,,,,WR,1,2,2021-01-06_23h09.31.682,configural_featural,2020.2.4,Win32,60,1536,864,,,,,,,,,,,,,,,,,,0,0.180761727,1,Stimuli/f15.png,Stimuli/f15.png,feat_face,j,0,0.26748,,1,18,0,18,0,1,,,,,,,,
,,,,,,,,,,,,,,,,,,,,,,,,,,,WR,1,2,2021-01-06_23h09.31.682,configural_featural,2020.2.4,Win32,60,1536,864,,,,,,,,,,,,,,,,,,1,0.180761727,0,Stimuli/f131.png,Stimuli/f142.png,feat_face,j,1,0.276015,space,1,19,0,19,0,1,0.6085,,,,,,,
,,,,,,,,,,,,,,,,,,,,,,,,,,,WR,1,2,2021-01-06_23h09.31.682,configural_featural,2020.2.4,Win32,60,1536,864,,,,,,,,,,,,,,,,,,0,0.180761727,1,Stimuli/f131.png,Stimuli/f131.png,feat_face,j,0,0.82674,,1,20,0,20,0,1,,,,,,,,
,,,,,,,,,,,,,,,,,,,,,,,,,,,WR,1,2,2021-01-06_23h09.31.682,configural_featural,2020.2.4,Win32,60,1536,864,,,,,,,,,,,,,,,,,,0,0.180761727,0,Stimuli/f24.png,Stimuli/f142.png,feat_face,j,1,0.36863,,1,21,0,21,0,1,,,,,,,,
,,,,,,,,,,,,,,,,,,,,,,,,,,,WR,1,2,2021-01-06_23h09.31.682,configural_featural,2020.2.4,Win32,60,1536,864,,,,,,,,,,,,,,,,,,1,0.180761727,1,Stimuli/f24.png,Stimuli/f24.png,feat_face,j,0,0.453365,space,1,22,0,22,0,1,0.81828,,,,,,,
,,,,,,,,,,,,,,,,,,,,,,,,,,,WR,1,2,2021-01-06_23h09.31.682,configural_featural,2020.2.4,Win32,60,1536,864,,,,,,,,,,,,,,,,,,0,0.180761727,0,Stimuli/f15.png,Stimuli/f142.png,feat_face,j,1,0.358435,,1,23,0,23,0,1,,,,,,,,
,,,,,,,,,,,,,,,,,,,,,,,,,,,WR,1,2,2021-01-06_23h09.31.682,configural_featural,2020.2.4,Win32,60,1536,864,,,,,,,,,,,,,,,,,,0,0.180761727,0,Stimuli/f142.png,Stimuli/f24.png,feat_face,j,1,0.384595,,1,24,0,24,0,1,,,,,,,,
,,,,,,,,,,,,,,,,,,,,,,,,,,,WR,1,2,2021-01-06_23h09.31.682,configural_featural,2020.2.4,Win32,60,1536,864,,,,,,,,,,,,,,,,,,0,0.180761727,1,Stimuli/f24.png,Stimuli/f24.png,feat_face,f,1,0.8081,,1,25,0,25,0,1,,,,,,,,
,,,,,,,,,,,,,,,,,,,,,,,,,,,WR,1,2,2021-01-06_23h09.31.682,configural_featural,2020.2.4,Win32,60,1536,864,,,,,,,,,,,,,,,,,,1,0.180761727,0,Stimuli/f15.png,Stimuli/f142.png,feat_face,j,1,0.62386,space,1,26,0,26,0,1,0.61918,,,,,,,
,,,,,,,,,,,,,,,,,,,,,,,,,,,WR,1,2,2021-01-06_23h09.31.682,configural_featural,2020.2.4,Win32,60,1536,864,,,,,,,,,,,,,,,,,,0,0.180761727,1,Stimuli/f142.png,Stimuli/f142.png,feat_face,j,0,0.89216,,1,27,0,27,0,1,,,,,,,,
,,,,,,,,,,,,,,,,,,,,,,,,,,,WR,1,2,2021-01-06_23h09.31.682,configural_featural,2020.2.4,Win32,60,1536,864,,,,,,,,,,,,,,,,,,0,0.180761727,1,Stimuli/f15.png,Stimuli/f15.png,feat_face,f,1,0.477785,,1,28,0,28,0,1,,,,,,,,
,,,,,,,,,,,,,,,,,,,,,,,,,,,WR,1,2,2021-01-06_23h09.31.682,configural_featural,2020.2.4,Win32,60,1536,864,,,,,,,,,,,,,,,,,,0,0.180761727,0,Stimuli/f131.png,Stimuli/f142.png,feat_face,j,1,0.47371,,1,29,0,29,0,1,,,,,,,,
,,,,,,,,,,,,,,,,,,,,,,,,,,,WR,1,2,2021-01-06_23h09.31.682,configural_featural,2020.2.4,Win32,60,1536,864,,,,,,,,,,,,,,,,,,0,0.180761727,0,Stimuli/f15.png,Stimuli/f24.png,feat_face,j,1,0.85403,,1,30,0,30,0,1,,,,,,,,
,,,,,,,,,,,,,,,,,,,,,,,,,,,WR,1,2,2021-01-06_23h09.31.682,configural_featural,2020.2.4,Win32,60,1536,864,,,,,,,,,,,,,,,,,,1,0.180761727,0,Stimuli/f142.png,Stimuli/f131.png,feat_face,j,1,0.88572,space,1,31,0,31,0,1,0.620375,,,,,,,
,,,,,,,,,,,,,,,,,,,,,,,,,,,WR,1,2,2021-01-06_23h09.31.682,configural_featural,2020.2.4,Win32,60,1536,864,,,,,,,,,,,,,,,,,,0,0.180761727,1,Stimuli/f131.png,Stimuli/f131.png,feat_face,j,0,0.75098,,1,32,0,32,0,1,,,,,,,,
,,,,,,,,,,,,,,,,,,,,,,,,,,,WR,1,2,2021-01-06_23h09.31.682,configural_featural,2020.2.4,Win32,60,1536,864,,,,,,,,,,,,,,,,,,1,0.180761727,0,Stimuli/f15.png,Stimuli/f24.png,feat_face,j,1,0.67011,space,1,33,0,33,0,1,0.57815,,,,,,,
,,,,,,,,,,,,,,,,,,,,,,,,,,,WR,1,2,2021-01-06_23h09.31.682,configural_featural,2020.2.4,Win32,60,1536,864,,,,,,,,,,,,,,,,,,0,0.180761727,1,Stimuli/f142.png,Stimuli/f142.png,feat_face,j,0,2.20747,,1,34,0,34,0,1,,,,,,,,
,,,,,,,,,,,,,,,,,,,,,,,,,,,WR,1,2,2021-01-06_23h09.31.682,configural_featural,2020.2.4,Win32,60,1536,864,,,,,,,,,,,,,,,,,,0,0.180761727,1,Stimuli/f15.png,Stimuli/f15.png,feat_face,j,0,2.19925,,1,35,0,35,0,1,,,,,,,,
,,,,,,,,,,,,,,,,,,,,,,,,,,,WR,1,2,2021-01-06_23h09.31.682,configural_featural,2020.2.4,Win32,60,1536,864,,,,,,,,,,,,,,,,,,0,0.180761727,1,Stimuli/f24.png,Stimuli/f24.png,feat_face,f,1,0.92708,,1,36,0,36,0,1,,,,,,,,
,,,,,,,,,,,,,,,,,,,,,,,,,,,WR,1,2,2021-01-06_23h09.31.682,configural_featural,2020.2.4,Win32,60,1536,864,,,,,,,,,,,,,,,,,,1,0.180761727,0,Stimuli/f131.png,Stimuli/f15.png,feat_face,j,1,0.36895,space,1,37,0,37,0,1,0.66924,,,,,,,
,,,,,,,,,,,,,,,,,,,,,,,,,,,WR,1,2,2021-01-06_23h09.31.682,configural_featural,2020.2.4,Win32,60,1536,864,,,,,,,,,,,,,,,,,,0,0.180761727,1,Stimuli/f131.png,Stimuli/f131.png,feat_face,f,1,1.09704,,1,38,0,38,0,1,,,,,,,,
,,,,,,,,,,,,,,,,,,,,,,,,,,,WR,1,2,2021-01-06_23h09.31.682,configural_featural,2020.2.4,Win32,60,1536,864,,,,,,,,,,,,,,,,,,1,0.180761727,0,Stimuli/f24.png,Stimuli/f131.png,feat_face,j,1,0.51946,space,1,39,0,39,0,1,0.61951,,,,,,,
,,,,,,,,,,,,,,,,,,,,,,,,,,,WR,1,2,2021-01-06_23h09.31.682,configural_featural,2020.2.4,Win32,60,1536,864,,,,,,,,,,,,,,,,,,0,0.180761727,1,Stimuli/f24.png,Stimuli/f24.png,feat_face,f,1,1.168245,,1,40,0,40,0,1,,,,,,,,
,,,,,,,,,,,,,,,,,,,,,,,,,,,WR,1,2,2021-01-06_23h09.31.682,configural_featural,2020.2.4,Win32,60,1536,864,,,,,,,,,,,,,,,,,,0,0.180761727,0,Stimuli/f24.png,Stimuli/f15.png,feat_face,j,1,0.23599,,1,41,0,41,0,1,,,,,,,,
,,,,,,,,,,,,,,,,,,,,,,,,,,,WR,1,2,2021-01-06_23h09.31.682,configural_featural,2020.2.4,Win32,60,1536,864,,,,,,,,,,,,,,,,,,0,0.180761727,1,Stimuli/f15.png,Stimuli/f15.png,feat_face,f,1,0.603,,1,42,0,42,0,1,,,,,,,,
,,,,,,,,,,,,,,,,,,,,,,,,,,,WR,1,2,2021-01-06_23h09.31.682,configural_featural,2020.2.4,Win32,60,1536,864,,,,,,,,,,,,,,,,,,0,0.180761727,0,Stimuli/f24.png,Stimuli/f131.png,feat_face,j,1,0.829365,,1,43,0,43,0,1,,,,,,,,
,,,,,,,,,,,,,,,,,,,,,,,,,,,WR,1,2,2021-01-06_23h09.31.682,configural_featural,2020.2.4,Win32,60,1536,864,,,,,,,,,,,,,,,,,,1,0.180761727,0,Stimuli/f142.png,Stimuli/f15.png,feat_face,j,1,0.838015,space,1,44,0,44,0,1,0.801555,,,,,,,
,,,,,,,,,,,,,,,,,,,,,,,,,,,WR,1,2,2021-01-06_23h09.31.682,configural_featural,2020.2.4,Win32,60,1536,864,,,,,,,,,,,,,,,,,,0,0.180761727,0,Stimuli/f24.png,Stimuli/f142.png,feat_face,j,1,0.86474,,1,45,0,45,0,1,,,,,,,,
,,,,,,,,,,,,,,,,,,,,,,,,,,,WR,1,2,2021-01-06_23h09.31.682,configural_featural,2020.2.4,Win32,60,1536,864,,,,,,,,,,,,,,,,,,0,0.180761727,1,Stimuli/f142.png,Stimuli/f142.png,feat_face,j,0,0.745185,,1,46,0,46,0,1,,,,,,,,
,,,,,,,,,,,,,,,,,,,,,,,,,,,WR,1,2,2021-01-06_23h09.31.682,configural_featural,2020.2.4,Win32,60,1536,864,,,,,,,,,,,,,,,,,,0,0.180761727,1,Stimuli/f131.png,Stimuli/f131.png,feat_face,j,0,0.78549,,1,47,0,47,0,1,,,,,,,,
,,,,,,,,,,,,,,,,,,,,,,,,,,,WR,1,2,2021-01-06_23h09.31.682,configural_featural,2020.2.4,Win32,60,1536,864,,,,,,,,,,,,,,,,,,,,,,,,,,,,,,,,,,,1,2,6,2,1,feat_face,Designs/instructions_face_1234.png
,,,,,,,,,,,,,,,,,,,,,,,,,,,WR,1,2,2021-01-06_23h09.31.682,configural_featural,2020.2.4,Win32,60,1536,864,,,,,,,,,,,,,,,,,,0,0.180761727,0,Stimuli/H6sim0.png,Stimuli/H8sim0.png,feat_haus,j,1,0.626455,,1,0,0,0,0,1,,,,,,,,
,,,,,,,,,,,,,,,,,,,,,,,,,,,WR,1,2,2021-01-06_23h09.31.682,configural_featural,2020.2.4,Win32,60,1536,864,,,,,,,,,,,,,,,,,,0,0.180761727,0,Stimuli/H7sim0.png,Stimuli/H8sim0.png,feat_haus,j,1,0.55194,,1,1,0,1,0,1,,,,,,,,
,,,,,,,,,,,,,,,,,,,,,,,,,,,WR,1,2,2021-01-06_23h09.31.682,configural_featural,2020.2.4,Win32,60,1536,864,,,,,,,,,,,,,,,,,,0,0.180761727,0,Stimuli/H8sim0.png,Stimuli/H6sim0.png,feat_haus,j,1,0.52281,,1,2,0,2,0,1,,,,,,,,
,,,,,,,,,,,,,,,,,,,,,,,,,,,WR,1,2,2021-01-06_23h09.31.682,configural_featural,2020.2.4,Win32,60,1536,864,,,,,,,,,,,,,,,,,,0,0.180761727,1,Stimuli/H6sim0.png,Stimuli/H6sim0.png,feat_haus,f,1,0.76775,,1,3,0,3,0,1,,,,,,,,
,,,,,,,,,,,,,,,,,,,,,,,,,,,WR,1,2,2021-01-06_23h09.31.682,configural_featural,2020.2.4,Win32,60,1536,864,,,,,,,,,,,,,,,,,,1,0.180761727,1,Stimuli/H5sim0.png,Stimuli/H5sim0.png,feat_haus,f,1,0.50427,space,1,4,0,4,0,1,0.705155,,,,,,,
,,,,,,,,,,,,,,,,,,,,,,,,,,,WR,1,2,2021-01-06_23h09.31.682,configural_featural,2020.2.4,Win32,60,1536,864,,,,,,,,,,,,,,,,,,0,0.180761727,1,Stimuli/H7sim0.png,Stimuli/H7sim0.png,feat_haus,j,0,0.789035,,1,5,0,5,0,1,,,,,,,,
,,,,,,,,,,,,,,,,,,,,,,,,,,,WR,1,2,2021-01-06_23h09.31.682,configural_featural,2020.2.4,Win32,60,1536,864,,,,,,,,,,,,,,,,,,0,0.180761727,1,Stimuli/H8sim0.png,Stimuli/H8sim0.png,feat_haus,f,1,0.75238,,1,6,0,6,0,1,,,,,,,,
,,,,,,,,,,,,,,,,,,,,,,,,,,,WR,1,2,2021-01-06_23h09.31.682,configural_featural,2020.2.4,Win32,60,1536,864,,,,,,,,,,,,,,,,,,0,0.180761727,1,Stimuli/H8sim0.png,Stimuli/H8sim0.png,feat_haus,f,1,0.35312,,1,7,0,7,0,1,,,,,,,,
,,,,,,,,,,,,,,,,,,,,,,,,,,,WR,1,2,2021-01-06_23h09.31.682,configural_featural,2020.2.4,Win32,60,1536,864,,,,,,,,,,,,,,,,,,1,0.180761727,0,Stimuli/H5sim0.png,Stimuli/H6sim0.png,feat_haus,j,1,0.52323,,0,8,0,8,0,1,,,,,,,,
,,,,,,,,,,,,,,,,,,,,,,,,,,,WR,1,2,2021-01-06_23h09.31.682,configural_featural,2020.2.4,Win32,60,1536,864,,,,,,,,,,,,,,,,,,0,0.180761727,0,Stimuli/H5sim0.png,Stimuli/H8sim0.png,feat_haus,j,1,1.42026,,1,9,0,9,0,1,,,,,,,,
,,,,,,,,,,,,,,,,,,,,,,,,,,,WR,1,2,2021-01-06_23h09.31.682,configural_featural,2020.2.4,Win32,60,1536,864,,,,,,,,,,,,,,,,,,1,0.180761727,1,Stimuli/H5sim0.png,Stimuli/H5sim0.png,feat_haus,f,1,0.850425,space,1,10,0,10,0,1,0.733545,,,,,,,
,,,,,,,,,,,,,,,,,,,,,,,,,,,WR,1,2,2021-01-06_23h09.31.682,configural_featural,2020.2.4,Win32,60,1536,864,,,,,,,,,,,,,,,,,,0,0.180761727,0,Stimuli/H8sim0.png,Stimuli/H7sim0.png,feat_haus,j,1,0.556265,,1,11,0,11,0,1,,,,,,,,
,,,,,,,,,,,,,,,,,,,,,,,,,,,WR,1,2,2021-01-06_23h09.31.682,configural_featural,2020.2.4,Win32,60,1536,864,,,,,,,,,,,,,,,,,,0,0.180761727,1,Stimuli/H6sim0.png,Stimuli/H6sim0.png,feat_haus,f,1,0.5234,,1,12,0,12,0,1,,,,,,,,
,,,,,,,,,,,,,,,,,,,,,,,,,,,WR,1,2,2021-01-06_23h09.31.682,configural_featural,2020.2.4,Win32,60,1536,864,,,,,,,,,,,,,,,,,,0,0.180761727,1,Stimuli/H7sim0.png,Stimuli/H7sim0.png,feat_haus,j,0,0.42335,,1,13,0,13,0,1,,,,,,,,
,,,,,,,,,,,,,,,,,,,,,,,,,,,WR,1,2,2021-01-06_23h09.31.682,configural_featural,2020.2.4,Win32,60,1536,864,,,,,,,,,,,,,,,,,,0,0.180761727,0,Stimuli/H7sim0.png,Stimuli/H5sim0.png,feat_haus,j,1,0.245935,,1,14,0,14,0,1,,,,,,,,
,,,,,,,,,,,,,,,,,,,,,,,,,,,WR,1,2,2021-01-06_23h09.31.682,configural_featural,2020.2.4,Win32,60,1536,864,,,,,,,,,,,,,,,,,,0,0.180761727,1,Stimuli/H7sim0.png,Stimuli/H7sim0.png,feat_haus,j,0,0.373775,,1,15,0,15,0,1,,,,,,,,
,,,,,,,,,,,,,,,,,,,,,,,,,,,WR,1,2,2021-01-06_23h09.31.682,configural_featural,2020.2.4,Win32,60,1536,864,,,,,,,,,,,,,,,,,,1,0.180761727,0,Stimuli/H5sim0.png,Stimuli/H8sim0.png,feat_haus,j,1,0.58332,space,1,16,0,16,0,1,0.801135,,,,,,,
,,,,,,,,,,,,,,,,,,,,,,,,,,,WR,1,2,2021-01-06_23h09.31.682,configural_featural,2020.2.4,Win32,60,1536,864,,,,,,,,,,,,,,,,,,0,0.180761727,0,Stimuli/H8sim0.png,Stimuli/H6sim0.png,feat_haus,j,1,0.622365,,1,17,0,17,0,1,,,,,,,,
,,,,,,,,,,,,,,,,,,,,,,,,,,,WR,1,2,2021-01-06_23h09.31.682,configural_featural,2020.2.4,Win32,60,1536,864,,,,,,,,,,,,,,,,,,0,0.180761727,0,Stimuli/H5sim0.png,Stimuli/H7sim0.png,feat_haus,f,0,0.71252,,1,18,0,18,0,1,,,,,,,,
,,,,,,,,,,,,,,,,,,,,,,,,,,,WR,1,2,2021-01-06_23h09.31.682,configural_featural,2020.2.4,Win32,60,1536,864,,,,,,,,,,,,,,,,,,1,0.180761727,0,Stimuli/H8sim0.png,Stimuli/H7sim0.png,feat_haus,j,1,0.47308,space,1,19,0,19,0,1,0.77282,,,,,,,
,,,,,,,,,,,,,,,,,,,,,,,,,,,WR,1,2,2021-01-06_23h09.31.682,configural_featural,2020.2.4,Win32,60,1536,864,,,,,,,,,,,,,,,,,,0,0.180761727,1,Stimuli/H5sim0.png,Stimuli/H5sim0.png,feat_haus,j,0,0.73964,,1,20,0,20,0,1,,,,,,,,
,,,,,,,,,,,,,,,,,,,,,,,,,,,WR,1,2,2021-01-06_23h09.31.682,configural_featural,2020.2.4,Win32,60,1536,864,,,,,,,,,,,,,,,,,,0,0.180761727,0,Stimuli/H7sim0.png,Stimuli/H6sim0.png,feat_haus,j,1,0.220585,,1,21,0,21,0,1,,,,,,,,
,,,,,,,,,,,,,,,,,,,,,,,,,,,WR,1,2,2021-01-06_23h09.31.682,configural_featural,2020.2.4,Win32,60,1536,864,,,,,,,,,,,,,,,,,,1,0.180761727,1,Stimuli/H8sim0.png,Stimuli/H8sim0.png,feat_haus,f,1,0.71859,space,1,22,0,22,0,1,0.719835,,,,,,,
,,,,,,,,,,,,,,,,,,,,,,,,,,,WR,1,2,2021-01-06_23h09.31.682,configural_featural,2020.2.4,Win32,60,1536,864,,,,,,,,,,,,,,,,,,0,0.180761727,1,Stimuli/H6sim0.png,Stimuli/H6sim0.png,feat_haus,j,0,0.2901,,1,23,0,23,0,1,,,,,,,,
,,,,,,,,,,,,,,,,,,,,,,,,,,,WR,1,2,2021-01-06_23h09.31.682,configural_featural,2020.2.4,Win32,60,1536,864,,,,,,,,,,,,,,,,,,0,0.180761727,0,Stimuli/H7sim0.png,Stimuli/H8sim0.png,feat_haus,j,1,0.253035,,1,24,0,24,0,1,,,,,,,,
,,,,,,,,,,,,,,,,,,,,,,,,,,,WR,1,2,2021-01-06_23h09.31.682,configural_featural,2020.2.4,Win32,60,1536,864,,,,,,,,,,,,,,,,,,0,0.180761727,1,Stimuli/H8sim0.png,Stimuli/H8sim0.png,feat_haus,j,0,1.36211,,1,25,0,25,0,1,,,,,,,,
,,,,,,,,,,,,,,,,,,,,,,,,,,,WR,1,2,2021-01-06_23h09.31.682,configural_featural,2020.2.4,Win32,60,1536,864,,,,,,,,,,,,,,,,,,1,0.180761727,1,Stimuli/H5sim0.png,Stimuli/H5sim0.png,feat_haus,f,1,0.639525,space,1,26,0,26,0,1,0.684135,,,,,,,
,,,,,,,,,,,,,,,,,,,,,,,,,,,WR,1,2,2021-01-06_23h09.31.682,configural_featural,2020.2.4,Win32,60,1536,864,,,,,,,,,,,,,,,,,,0,0.180761727,0,Stimuli/H6sim0.png,Stimuli/H5sim0.png,feat_haus,j,1,0.6852,,1,27,0,27,0,1,,,,,,,,
,,,,,,,,,,,,,,,,,,,,,,,,,,,WR,1,2,2021-01-06_23h09.31.682,configural_featural,2020.2.4,Win32,60,1536,864,,,,,,,,,,,,,,,,,,0,0.180761727,0,Stimuli/H7sim0.png,Stimuli/H6sim0.png,feat_haus,j,1,0.6365,,1,28,0,28,0,1,,,,,,,,
,,,,,,,,,,,,,,,,,,,,,,,,,,,WR,1,2,2021-01-06_23h09.31.682,configural_featural,2020.2.4,Win32,60,1536,864,,,,,,,,,,,,,,,,,,1,0.180761727,1,Stimuli/H7sim0.png,Stimuli/H7sim0.png,feat_haus,j,0,1.672045,space,1,29,0,29,0,1,1.1417,,,,,,,
,,,,,,,,,,,,,,,,,,,,,,,,,,,WR,1,2,2021-01-06_23h09.31.682,configural_featural,2020.2.4,Win32,60,1536,864,,,,,,,,,,,,,,,,,,0,0.180761727,1,Stimuli/H6sim0.png,Stimuli/H6sim0.png,feat_haus,j,0,7.289485,,1,30,0,30,0,1,,,,,,,,
,,,,,,,,,,,,,,,,,,,,,,,,,,,WR,1,2,2021-01-06_23h09.31.682,configural_featural,2020.2.4,Win32,60,1536,864,,,,,,,,,,,,,,,,,,0,0.180761727,0,Stimuli/H6sim0.png,Stimuli/H5sim0.png,feat_haus,j,1,1.054545,,1,31,0,31,0,1,,,,,,,,
,,,,,,,,,,,,,,,,,,,,,,,,,,,WR,1,2,2021-01-06_23h09.31.682,configural_featural,2020.2.4,Win32,60,1536,864,,,,,,,,,,,,,,,,,,0,0.180761727,1,Stimuli/H5sim0.png,Stimuli/H5sim0.png,feat_haus,j,0,0.629395,,1,32,0,32,0,1,,,,,,,,
,,,,,,,,,,,,,,,,,,,,,,,,,,,WR,1,2,2021-01-06_23h09.31.682,configural_featural,2020.2.4,Win32,60,1536,864,,,,,,,,,,,,,,,,,,1,0.180761727,0,Stimuli/H5sim0.png,Stimuli/H6sim0.png,feat_haus,j,1,0.51798,space,1,33,0,33,0,1,0.717725,,,,,,,
,,,,,,,,,,,,,,,,,,,,,,,,,,,WR,1,2,2021-01-06_23h09.31.682,configural_featural,2020.2.4,Win32,60,1536,864,,,,,,,,,,,,,,,,,,0,0.180761727,0,Stimuli/H6sim0.png,Stimuli/H8sim0.png,feat_haus,j,1,0.461635,,1,34,0,34,0,1,,,,,,,,
,,,,,,,,,,,,,,,,,,,,,,,,,,,WR,1,2,2021-01-06_23h09.31.682,configural_featural,2020.2.4,Win32,60,1536,864,,,,,,,,,,,,,,,,,,0,0.180761727,1,Stimuli/H6sim0.png,Stimuli/H6sim0.png,feat_haus,f,1,0.72869,,1,35,0,35,0,1,,,,,,,,
,,,,,,,,,,,,,,,,,,,,,,,,,,,WR,1,2,2021-01-06_23h09.31.682,configural_featural,2020.2.4,Win32,60,1536,864,,,,,,,,,,,,,,,,,,0,0.180761727,0,Stimuli/H6sim0.png,Stimuli/H7sim0.png,feat_haus,j,1,0.30778,,1,36,0,36,0,1,,,,,,,,
,,,,,,,,,,,,,,,,,,,,,,,,,,,WR,1,2,2021-01-06_23h09.31.682,configural_featural,2020.2.4,Win32,60,1536,864,,,,,,,,,,,,,,,,,,1,0.180761727,0,Stimuli/H6sim0.png,Stimuli/H7sim0.png,feat_haus,j,1,0.61936,space,1,37,0,37,0,1,0.658975,,,,,,,
,,,,,,,,,,,,,,,,,,,,,,,,,,,WR,1,2,2021-01-06_23h09.31.682,configural_featural,2020.2.4,Win32,60,1536,864,,,,,,,,,,,,,,,,,,0,0.180761727,1,Stimuli/H7sim0.png,Stimuli/H7sim0.png,feat_haus,f,1,0.66774,,1,38,0,38,0,1,,,,,,,,
,,,,,,,,,,,,,,,,,,,,,,,,,,,WR,1,2,2021-01-06_23h09.31.682,configural_featural,2020.2.4,Win32,60,1536,864,,,,,,,,,,,,,,,,,,1,0.180761727,0,Stimuli/H7sim0.png,Stimuli/H5sim0.png,feat_haus,j,1,0.530265,space,1,39,0,39,0,1,0.643145,,,,,,,
,,,,,,,,,,,,,,,,,,,,,,,,,,,WR,1,2,2021-01-06_23h09.31.682,configural_featural,2020.2.4,Win32,60,1536,864,,,,,,,,,,,,,,,,,,0,0.180761727,1,Stimuli/H8sim0.png,Stimuli/H8sim0.png,feat_haus,j,0,0.58728,,1,40,0,40,0,1,,,,,,,,
,,,,,,,,,,,,,,,,,,,,,,,,,,,WR,1,2,2021-01-06_23h09.31.682,configural_featural,2020.2.4,Win32,60,1536,864,,,,,,,,,,,,,,,,,,0,0.180761727,1,Stimuli/H6sim0.png,Stimuli/H6sim0.png,feat_haus,j,0,0.41856,,1,41,0,41,0,1,,,,,,,,
,,,,,,,,,,,,,,,,,,,,,,,,,,,WR,1,2,2021-01-06_23h09.31.682,configural_featural,2020.2.4,Win32,60,1536,864,,,,,,,,,,,,,,,,,,0,0.180761727,0,Stimuli/H8sim0.png,Stimuli/H5sim0.png,feat_haus,f,0,1.15185,,1,42,0,42,0,1,,,,,,,,
,,,,,,,,,,,,,,,,,,,,,,,,,,,WR,1,2,2021-01-06_23h09.31.682,configural_featural,2020.2.4,Win32,60,1536,864,,,,,,,,,,,,,,,,,,1,0.180761727,0,Stimuli/H5sim0.png,Stimuli/H7sim0.png,feat_haus,j,1,0.27643,space,1,43,0,43,0,1,0.567945,,,,,,,
,,,,,,,,,,,,,,,,,,,,,,,,,,,WR,1,2,2021-01-06_23h09.31.682,configural_featural,2020.2.4,Win32,60,1536,864,,,,,,,,,,,,,,,,,,0,0.180761727,0,Stimuli/H8sim0.png,Stimuli/H5sim0.png,feat_haus,j,1,0.62001,,1,44,0,44,0,1,,,,,,,,
,,,,,,,,,,,,,,,,,,,,,,,,,,,WR,1,2,2021-01-06_23h09.31.682,configural_featural,2020.2.4,Win32,60,1536,864,,,,,,,,,,,,,,,,,,0,0.180761727,1,Stimuli/H5sim0.png,Stimuli/H5sim0.png,feat_haus,f,1,0.63676,,1,45,0,45,0,1,,,,,,,,
,,,,,,,,,,,,,,,,,,,,,,,,,,,WR,1,2,2021-01-06_23h09.31.682,configural_featural,2020.2.4,Win32,60,1536,864,,,,,,,,,,,,,,,,,,0,0.180761727,1,Stimuli/H8sim0.png,Stimuli/H8sim0.png,feat_haus,f,1,0.636115,,1,46,0,46,0,1,,,,,,,,
,,,,,,,,,,,,,,,,,,,,,,,,,,,WR,1,2,2021-01-06_23h09.31.682,configural_featural,2020.2.4,Win32,60,1536,864,,,,,,,,,,,,,,,,,,0,0.180761727,1,Stimuli/H7sim0.png,Stimuli/H7sim0.png,feat_haus,j,0,1.50598,,1,47,0,47,0,1,,,,,,,,
,,,,,,,,,,,,,,,,,,,,,,,,,,,WR,1,2,2021-01-06_23h09.31.682,configural_featural,2020.2.4,Win32,60,1536,864,,,,,,,,,,,,,,,,,,,,,,,,,,,,,,,,,,,1,3,7,3,1,feat_haus,Designs/instructions_haus_1234.png
