X Scale,Y Scale,hand_hold_resp.keys,hand_hold_resp.corr,hand_hold_resp.rt,fixpR1,prac_resp.keys,prac_resp.corr,prac_fix_resp.keys,prac_fix_resp.corr,prac_trials_run1.thisRepN,prac_trials_run1.thisTrialN,prac_trials_run1.thisN,prac_trials_run1.thisIndex,prac_trials_run1.ran,runID,imgID,stimLabel,imFile,corr,side,participant,design,position,date,expName,psychopyVersion,OS,frameRate,xResolution,yResolution,prac_resp.rt,fixR1,fix_resp1_1.keys,trial_resp.keys,trial_resp.corr,trial_resp.rt,fix_resp_2.keys,trials_run1.thisRepN,trials_run1.thisTrialN,trials_run1.thisN,trials_run1.thisIndex,trials_run1.ran,fixpR2,fix_respP2_1.keys,prac_trials_run2.thisRepN,prac_trials_run2.thisTrialN,prac_trials_run2.thisN,prac_trials_run2.thisIndex,prac_trials_run2.ran,prac_fix_resp.rt,fixR2,fix_resp2_1.keys,trials_run2.thisRepN,trials_run2.thisTrialN,trials_run2.thisN,trials_run2.thisIndex,trials_run2.ran,trials_run3.thisRepN,trials_run3.thisTrialN,trials_run3.thisN,trials_run3.thisIndex,trials_run3.ran,trials_run4.thisRepN,trials_run4.thisTrialN,trials_run4.thisN,trials_run4.thisIndex,trials_run4.ran
0.0646,0.0638,f,1,17.912335,0,,0,,1,0,0,0,3,1,1,1,largeHcongr,Stimuli/HofH2.jpg,j,left,h,3,1,2020-11-30_15h41.01.735,global_local,2020.2.4,Win32,60,1366,768,,,,,,,,,,,,,,,,,,,,,,,,,,,,,,,,,,,,,
,,,,,1,j,0,,0,0,1,1,0,1,1,7,largeSincon,Stimuli/SofH2.jpg,f,left,h,3,1,2020-11-30_15h41.01.735,global_local,2020.2.4,Win32,60,1366,768,1.81736,,,,,,,,,,,,,,,,,,,,,,,,,,,,,,,,,,,,
,,,,,0,f,0,,1,0,2,2,1,1,1,3,largeHincon,Stimuli/HofS2.jpg,j,left,h,3,1,2020-11-30_15h41.01.735,global_local,2020.2.4,Win32,60,1366,768,3.132445,,,,,,,,,,,,,,,,,,,,,,,,,,,,,,,,,,,,
,,,,,0,f,1,,1,0,3,3,2,1,1,5,largeScongr,Stimuli/SofS2.jpg,f,left,h,3,1,2020-11-30_15h41.01.735,global_local,2020.2.4,Win32,60,1366,768,3.58056,,,,,,,,,,,,,,,,,,,,,,,,,,,,,,,,,,,,
,,,,,,,,,,,,,,,1,1,largeHcongr,Stimuli/HofH2.jpg,j,left,h,3,1,2020-11-30_15h41.01.735,global_local,2020.2.4,Win32,60,1366,768,,0,,j,1,1.48034,,0,0,0,0,1,,,,,,,,,,,,,,,,,,,,,,,,,
,,,,,,,,,,,,,,,1,5,largeScongr,Stimuli/SofS2.jpg,f,left,h,3,1,2020-11-30_15h41.01.735,global_local,2020.2.4,Win32,60,1366,768,,1,,f,1,1.388035,,0,1,1,2,1,,,,,,,,,,,,,,,,,,,,,,,,,
,,,,,,,,,,,,,,,1,3,largeHincon,Stimuli/HofS2.jpg,j,left,h,3,1,2020-11-30_15h41.01.735,global_local,2020.2.4,Win32,60,1366,768,,0,,f,0,2.173955,,0,2,2,1,1,,,,,,,,,,,,,,,,,,,,,,,,,
,,,,,,,,,,,,,,,1,7,largeSincon,Stimuli/SofH2.jpg,f,left,h,3,1,2020-11-30_15h41.01.735,global_local,2020.2.4,Win32,60,1366,768,,0,,j,0,1.245235,,0,3,3,3,1,,,,,,,,,,,,,,,,,,,,,,,,,
,,,,,,,,,,,,,,,1,5,largeScongr,Stimuli/SofS2.jpg,f,left,h,3,1,2020-11-30_15h41.01.735,global_local,2020.2.4,Win32,60,1366,768,,0,,f,1,1.051615,,1,0,4,2,1,,,,,,,,,,,,,,,,,,,,,,,,,
,,,,,,,,,,,,,,,1,1,largeHcongr,Stimuli/HofH2.jpg,j,left,h,3,1,2020-11-30_15h41.01.735,global_local,2020.2.4,Win32,60,1366,768,,0,,j,1,1.333915,,1,1,5,0,1,,,,,,,,,,,,,,,,,,,,,,,,,
,,,,,,,,,,,,,,,1,7,largeSincon,Stimuli/SofH2.jpg,f,left,h,3,1,2020-11-30_15h41.01.735,global_local,2020.2.4,Win32,60,1366,768,,0,,f,1,1.97658,,1,2,6,3,1,,,,,,,,,,,,,,,,,,,,,,,,,
,,,,,,,,,,,,,,,1,3,largeHincon,Stimuli/HofS2.jpg,j,left,h,3,1,2020-11-30_15h41.01.735,global_local,2020.2.4,Win32,60,1366,768,,1,,f,0,5.684805,,1,3,7,1,1,,,,,,,,,,,,,,,,,,,,,,,,,
,,,,,,,,,,,,,,,1,1,largeHcongr,Stimuli/HofH2.jpg,j,left,h,3,1,2020-11-30_15h41.01.735,global_local,2020.2.4,Win32,60,1366,768,,0,,j,1,1.341235,,2,0,8,0,1,,,,,,,,,,,,,,,,,,,,,,,,,
,,,,,,,,,,,,,,,1,7,largeSincon,Stimuli/SofH2.jpg,f,left,h,3,1,2020-11-30_15h41.01.735,global_local,2020.2.4,Win32,60,1366,768,,1,,j,0,4.854355,,2,1,9,3,1,,,,,,,,,,,,,,,,,,,,,,,,,
,,,,,,,,,,,,,,,1,5,largeScongr,Stimuli/SofS2.jpg,f,left,h,3,1,2020-11-30_15h41.01.735,global_local,2020.2.4,Win32,60,1366,768,,1,,f,1,1.465295,,2,2,10,2,1,,,,,,,,,,,,,,,,,,,,,,,,,
,,,,,,,,,,,,,,,1,3,largeHincon,Stimuli/HofS2.jpg,j,left,h,3,1,2020-11-30_15h41.01.735,global_local,2020.2.4,Win32,60,1366,768,,1,,f,0,2.20003,,2,3,11,1,1,,,,,,,,,,,,,,,,,,,,,,,,,
,,,,,,,,,,,,,,,1,1,largeHcongr,Stimuli/HofH2.jpg,j,left,h,3,1,2020-11-30_15h41.01.735,global_local,2020.2.4,Win32,60,1366,768,,0,,j,1,1.78898,,3,0,12,0,1,,,,,,,,,,,,,,,,,,,,,,,,,
,,,,,,,,,,,,,,,1,7,largeSincon,Stimuli/SofH2.jpg,f,left,h,3,1,2020-11-30_15h41.01.735,global_local,2020.2.4,Win32,60,1366,768,,0,,j,0,3.681635,,3,1,13,3,1,,,,,,,,,,,,,,,,,,,,,,,,,
,,,,,,,,,,,,,,,1,3,largeHincon,Stimuli/HofS2.jpg,j,left,h,3,1,2020-11-30_15h41.01.735,global_local,2020.2.4,Win32,60,1366,768,,0,,f,0,1.35674,,3,2,14,1,1,,,,,,,,,,,,,,,,,,,,,,,,,
,,,,,,,,,,,,,,,1,5,largeScongr,Stimuli/SofS2.jpg,f,left,h,3,1,2020-11-30_15h41.01.735,global_local,2020.2.4,Win32,60,1366,768,,1,,f,1,1.2793,,3,3,15,2,1,,,,,,,,,,,,,,,,,,,,,,,,,
,,,,,,,,,,,,,,,1,5,largeScongr,Stimuli/SofS2.jpg,f,left,h,3,1,2020-11-30_15h41.01.735,global_local,2020.2.4,Win32,60,1366,768,,0,,f,1,2.09602,,4,0,16,2,1,,,,,,,,,,,,,,,,,,,,,,,,,
,,,,,,,,,,,,,,,1,1,largeHcongr,Stimuli/HofH2.jpg,j,left,h,3,1,2020-11-30_15h41.01.735,global_local,2020.2.4,Win32,60,1366,768,,0,,j,1,1.229865,,4,1,17,0,1,,,,,,,,,,,,,,,,,,,,,,,,,
,,,,,,,,,,,,,,,1,7,largeSincon,Stimuli/SofH2.jpg,f,left,h,3,1,2020-11-30_15h41.01.735,global_local,2020.2.4,Win32,60,1366,768,,0,,j,0,1.393455,,4,2,18,3,1,,,,,,,,,,,,,,,,,,,,,,,,,
,,,,,,,,,,,,,,,1,3,largeHincon,Stimuli/HofS2.jpg,j,left,h,3,1,2020-11-30_15h41.01.735,global_local,2020.2.4,Win32,60,1366,768,,0,,f,0,2.91779,,4,3,19,1,1,,,,,,,,,,,,,,,,,,,,,,,,,
,,,,,,,,,,,,,,,1,1,largeHcongr,Stimuli/HofH2.jpg,j,left,h,3,1,2020-11-30_15h41.01.735,global_local,2020.2.4,Win32,60,1366,768,,0,,j,1,2.302815,,5,0,20,0,1,,,,,,,,,,,,,,,,,,,,,,,,,
,,,,,,,,,,,,,,,1,7,largeSincon,Stimuli/SofH2.jpg,f,left,h,3,1,2020-11-30_15h41.01.735,global_local,2020.2.4,Win32,60,1366,768,,0,,f,1,1.967125,,5,1,21,3,1,,,,,,,,,,,,,,,,,,,,,,,,,
,,,,,,,,,,,,,,,1,5,largeScongr,Stimuli/SofS2.jpg,f,left,h,3,1,2020-11-30_15h41.01.735,global_local,2020.2.4,Win32,60,1366,768,,0,,j,0,3.894295,,5,2,22,2,1,,,,,,,,,,,,,,,,,,,,,,,,,
,,,,,,,,,,,,,,,1,3,largeHincon,Stimuli/HofS2.jpg,j,left,h,3,1,2020-11-30_15h41.01.735,global_local,2020.2.4,Win32,60,1366,768,,0,,j,1,3.501255,,5,3,23,1,1,,,,,,,,,,,,,,,,,,,,,,,,,
,,f,1,10.04827,,j,1,,1,,,,,,2,1,smallHcongr,Stimuli/HofH2.jpg,j,left,h,3,1,2020-11-30_15h41.01.735,global_local,2020.2.4,Win32,60,1366,768,2.099375,,,,,,,,,,,,0,,0,0,0,2,1,,,,,,,,,,,,,,,,,,
,,,,,,f,1,,1,,,,,,2,7,smallSincon,Stimuli/HofS2.jpg,f,left,h,3,1,2020-11-30_15h41.01.735,global_local,2020.2.4,Win32,60,1366,768,1.31438,,,,,,,,,,,,0,,0,1,1,3,1,,,,,,,,,,,,,,,,,,
,,,,,,,0,space,1,,,,,,2,5,smallScongr,Stimuli/SofS2.jpg,f,left,h,3,1,2020-11-30_15h41.01.735,global_local,2020.2.4,Win32,60,1366,768,,,,,,,,,,,,,1,,0,2,2,0,1,3.79905,,,,,,,,,,,,,,,,,
,,,,,,,0,,1,,,,,,2,3,smallHincon,Stimuli/SofH2.jpg,j,left,h,3,1,2020-11-30_15h41.01.735,global_local,2020.2.4,Win32,60,1366,768,,,,,,,,,,,,,0,,0,3,3,1,1,,,,,,,,,,,,,,,,,,
,,,,,,,,,,,,,,,2,1,smallHcongr,Stimuli/HofH2.jpg,j,left,h,3,1,2020-11-30_15h41.01.735,global_local,2020.2.4,Win32,60,1366,768,,,,j,1,1.330865,,,,,,,,,,,,,,,0,,0,0,0,0,1,,,,,,,,,,
,,,,,,,,,,,,,,,2,3,smallHincon,Stimuli/SofH2.jpg,j,left,h,3,1,2020-11-30_15h41.01.735,global_local,2020.2.4,Win32,60,1366,768,,,,j,1,2.449395,,,,,,,,,,,,,,,1,,0,1,1,1,1,,,,,,,,,,
,,,,,,,,,,,,,,,2,5,smallScongr,Stimuli/SofS2.jpg,f,left,h,3,1,2020-11-30_15h41.01.735,global_local,2020.2.4,Win32,60,1366,768,,,,f,1,1.40548,,,,,,,,,,,,,,,0,,0,2,2,2,1,,,,,,,,,,
,,,,,,,,,,,,,,,2,7,smallSincon,Stimuli/HofS2.jpg,f,left,h,3,1,2020-11-30_15h41.01.735,global_local,2020.2.4,Win32,60,1366,768,,,,f,1,3.71578,,,,,,,,,,,,,,,0,,0,3,3,3,1,,,,,,,,,,
,,,,,,,,,,,,,,,2,7,smallSincon,Stimuli/HofS2.jpg,f,left,h,3,1,2020-11-30_15h41.01.735,global_local,2020.2.4,Win32,60,1366,768,,,,f,1,1.79224,,,,,,,,,,,,,,,0,,1,0,4,3,1,,,,,,,,,,
,,,,,,,,,,,,,,,2,3,smallHincon,Stimuli/SofH2.jpg,j,left,h,3,1,2020-11-30_15h41.01.735,global_local,2020.2.4,Win32,60,1366,768,,,,j,1,1.267365,,,,,,,,,,,,,,,0,,1,1,5,1,1,,,,,,,,,,
,,,,,,,,,,,,,,,2,1,smallHcongr,Stimuli/HofH2.jpg,j,left,h,3,1,2020-11-30_15h41.01.735,global_local,2020.2.4,Win32,60,1366,768,,,,j,1,1.18806,,,,,,,,,,,,,,,0,,1,2,6,0,1,,,,,,,,,,
,,,,,,,,,,,,,,,2,5,smallScongr,Stimuli/SofS2.jpg,f,left,h,3,1,2020-11-30_15h41.01.735,global_local,2020.2.4,Win32,60,1366,768,,,,f,1,1.568245,,,,,,,,,,,,,,,1,,1,3,7,2,1,,,,,,,,,,
,,,,,,,,,,,,,,,2,1,smallHcongr,Stimuli/HofH2.jpg,j,left,h,3,1,2020-11-30_15h41.01.735,global_local,2020.2.4,Win32,60,1366,768,,,,j,1,2.199005,,,,,,,,,,,,,,,0,,2,0,8,0,1,,,,,,,,,,
,,,,,,,,,,,,,,,2,3,smallHincon,Stimuli/SofH2.jpg,j,left,h,3,1,2020-11-30_15h41.01.735,global_local,2020.2.4,Win32,60,1366,768,,,,j,1,1.46524,,,,,,,,,,,,,,,1,,2,1,9,1,1,,,,,,,,,,
,,,,,,,,,,,,,,,2,5,smallScongr,Stimuli/SofS2.jpg,f,left,h,3,1,2020-11-30_15h41.01.735,global_local,2020.2.4,Win32,60,1366,768,,,,f,1,1.15364,,,,,,,,,,,,,,,0,,2,2,10,2,1,,,,,,,,,,
,,,,,,,,,,,,,,,2,7,smallSincon,Stimuli/HofS2.jpg,f,left,h,3,1,2020-11-30_15h41.01.735,global_local,2020.2.4,Win32,60,1366,768,,,,f,1,2.045685,,,,,,,,,,,,,,,0,,2,3,11,3,1,,,,,,,,,,
,,,,,,,,,,,,,,,2,5,smallScongr,Stimuli/SofS2.jpg,f,left,h,3,1,2020-11-30_15h41.01.735,global_local,2020.2.4,Win32,60,1366,768,,,,f,1,1.47724,,,,,,,,,,,,,,,0,,3,0,12,2,1,,,,,,,,,,
,,,,,,,,,,,,,,,2,3,smallHincon,Stimuli/SofH2.jpg,j,left,h,3,1,2020-11-30_15h41.01.735,global_local,2020.2.4,Win32,60,1366,768,,,,j,1,1.2539,,,,,,,,,,,,,,,0,,3,1,13,1,1,,,,,,,,,,
,,,,,,,,,,,,,,,2,7,smallSincon,Stimuli/HofS2.jpg,f,left,h,3,1,2020-11-30_15h41.01.735,global_local,2020.2.4,Win32,60,1366,768,,,,f,1,1.17244,,,,,,,,,,,,,,,0,,3,2,14,3,1,,,,,,,,,,
,,,,,,,,,,,,,,,2,1,smallHcongr,Stimuli/HofH2.jpg,j,left,h,3,1,2020-11-30_15h41.01.735,global_local,2020.2.4,Win32,60,1366,768,,,,j,1,0.980685,,,,,,,,,,,,,,,1,,3,3,15,0,1,,,,,,,,,,
,,,,,,,,,,,,,,,2,5,smallScongr,Stimuli/SofS2.jpg,f,left,h,3,1,2020-11-30_15h41.01.735,global_local,2020.2.4,Win32,60,1366,768,,,,f,1,0.967695,,,,,,,,,,,,,,,0,,4,0,16,2,1,,,,,,,,,,
,,,,,,,,,,,,,,,2,1,smallHcongr,Stimuli/HofH2.jpg,j,left,h,3,1,2020-11-30_15h41.01.735,global_local,2020.2.4,Win32,60,1366,768,,,,j,1,1.02812,,,,,,,,,,,,,,,0,,4,1,17,0,1,,,,,,,,,,
,,,,,,,,,,,,,,,2,7,smallSincon,Stimuli/HofS2.jpg,f,left,h,3,1,2020-11-30_15h41.01.735,global_local,2020.2.4,Win32,60,1366,768,,,,f,1,2.806065,,,,,,,,,,,,,,,0,,4,2,18,3,1,,,,,,,,,,
,,,,,,,,,,,,,,,2,3,smallHincon,Stimuli/SofH2.jpg,j,left,h,3,1,2020-11-30_15h41.01.735,global_local,2020.2.4,Win32,60,1366,768,,,,j,1,1.35786,,,,,,,,,,,,,,,1,,4,3,19,1,1,,,,,,,,,,
,,,,,,,,,,,,,,,2,1,smallHcongr,Stimuli/HofH2.jpg,j,left,h,3,1,2020-11-30_15h41.01.735,global_local,2020.2.4,Win32,60,1366,768,,,,f,0,1.801125,,,,,,,,,,,,,,,0,,5,0,20,0,1,,,,,,,,,,
,,,,,,,,,,,,,,,2,5,smallScongr,Stimuli/SofS2.jpg,f,left,h,3,1,2020-11-30_15h41.01.735,global_local,2020.2.4,Win32,60,1366,768,,,,f,1,2.535005,,,,,,,,,,,,,,,0,,5,1,21,2,1,,,,,,,,,,
,,,,,,,,,,,,,,,2,7,smallSincon,Stimuli/HofS2.jpg,f,left,h,3,1,2020-11-30_15h41.01.735,global_local,2020.2.4,Win32,60,1366,768,,,,f,1,1.32201,,,,,,,,,,,,,,,0,,5,2,22,3,1,,,,,,,,,,
,,,,,,,,,,,,,,,2,3,smallHincon,Stimuli/SofH2.jpg,j,left,h,3,1,2020-11-30_15h41.01.735,global_local,2020.2.4,Win32,60,1366,768,,,,j,1,1.06753,,,,,,,,,,,,,,,1,,5,3,23,1,1,,,,,,,,,,
,,,,,,,,,,,,,,,1,1,largeHcongr,Stimuli/HofH2.jpg,j,left,h,3,1,2020-11-30_15h41.01.735,global_local,2020.2.4,Win32,60,1366,768,,0,,j,1,3.41769,,,,,,,,,,,,,,,,,,,,,,0,0,0,0,1,,,,,
,,,,,,,,,,,,,,,1,3,largeHincon,Stimuli/HofS2.jpg,j,left,h,3,1,2020-11-30_15h41.01.735,global_local,2020.2.4,Win32,60,1366,768,,1,,f,0,1.36011,,,,,,,,,,,,,,,,,,,,,,0,1,1,1,1,,,,,
,,,,,,,,,,,,,,,1,5,largeScongr,Stimuli/SofS2.jpg,f,left,h,3,1,2020-11-30_15h41.01.735,global_local,2020.2.4,Win32,60,1366,768,,0,,f,1,2.568015,,,,,,,,,,,,,,,,,,,,,,0,2,2,2,1,,,,,
,,,,,,,,,,,,,,,1,7,largeSincon,Stimuli/SofH2.jpg,f,left,h,3,1,2020-11-30_15h41.01.735,global_local,2020.2.4,Win32,60,1366,768,,0,,j,0,1.28302,,,,,,,,,,,,,,,,,,,,,,0,3,3,3,1,,,,,
,,,,,,,,,,,,,,,1,7,largeSincon,Stimuli/SofH2.jpg,f,left,h,3,1,2020-11-30_15h41.01.735,global_local,2020.2.4,Win32,60,1366,768,,1,,j,0,1.57329,,,,,,,,,,,,,,,,,,,,,,1,0,4,3,1,,,,,
,,,,,,,,,,,,,,,1,3,largeHincon,Stimuli/HofS2.jpg,j,left,h,3,1,2020-11-30_15h41.01.735,global_local,2020.2.4,Win32,60,1366,768,,0,,f,0,1.60195,,,,,,,,,,,,,,,,,,,,,,1,1,5,1,1,,,,,
,,,,,,,,,,,,,,,1,5,largeScongr,Stimuli/SofS2.jpg,f,left,h,3,1,2020-11-30_15h41.01.735,global_local,2020.2.4,Win32,60,1366,768,,1,,f,1,1.065665,,,,,,,,,,,,,,,,,,,,,,1,2,6,2,1,,,,,
,,,,,,,,,,,,,,,1,1,largeHcongr,Stimuli/HofH2.jpg,j,left,h,3,1,2020-11-30_15h41.01.735,global_local,2020.2.4,Win32,60,1366,768,,0,,j,1,1.034485,,,,,,,,,,,,,,,,,,,,,,1,3,7,0,1,,,,,
,,,,,,,,,,,,,,,1,1,largeHcongr,Stimuli/HofH2.jpg,j,left,h,3,1,2020-11-30_15h41.01.735,global_local,2020.2.4,Win32,60,1366,768,,0,,j,1,1.13361,,,,,,,,,,,,,,,,,,,,,,2,0,8,0,1,,,,,
,,,,,,,,,,,,,,,1,3,largeHincon,Stimuli/HofS2.jpg,j,left,h,3,1,2020-11-30_15h41.01.735,global_local,2020.2.4,Win32,60,1366,768,,0,,f,0,1.088265,,,,,,,,,,,,,,,,,,,,,,2,1,9,1,1,,,,,
,,,,,,,,,,,,,,,1,5,largeScongr,Stimuli/SofS2.jpg,f,left,h,3,1,2020-11-30_15h41.01.735,global_local,2020.2.4,Win32,60,1366,768,,0,,f,1,1.355015,,,,,,,,,,,,,,,,,,,,,,2,2,10,2,1,,,,,
,,,,,,,,,,,,,,,1,7,largeSincon,Stimuli/SofH2.jpg,f,left,h,3,1,2020-11-30_15h41.01.735,global_local,2020.2.4,Win32,60,1366,768,,0,,j,0,1.291255,,,,,,,,,,,,,,,,,,,,,,2,3,11,3,1,,,,,
,,,,,,,,,,,,,,,1,7,largeSincon,Stimuli/SofH2.jpg,f,left,h,3,1,2020-11-30_15h41.01.735,global_local,2020.2.4,Win32,60,1366,768,,0,,j,0,1.05019,,,,,,,,,,,,,,,,,,,,,,3,0,12,3,1,,,,,
,,,,,,,,,,,,,,,1,3,largeHincon,Stimuli/HofS2.jpg,j,left,h,3,1,2020-11-30_15h41.01.735,global_local,2020.2.4,Win32,60,1366,768,,0,,f,0,1.16872,,,,,,,,,,,,,,,,,,,,,,3,1,13,1,1,,,,,
,,,,,,,,,,,,,,,1,1,largeHcongr,Stimuli/HofH2.jpg,j,left,h,3,1,2020-11-30_15h41.01.735,global_local,2020.2.4,Win32,60,1366,768,,0,,j,1,0.971765,,,,,,,,,,,,,,,,,,,,,,3,2,14,0,1,,,,,
,,,,,,,,,,,,,,,1,5,largeScongr,Stimuli/SofS2.jpg,f,left,h,3,1,2020-11-30_15h41.01.735,global_local,2020.2.4,Win32,60,1366,768,,0,,f,1,1.203495,,,,,,,,,,,,,,,,,,,,,,3,3,15,2,1,,,,,
,,,,,,,,,,,,,,,1,3,largeHincon,Stimuli/HofS2.jpg,j,left,h,3,1,2020-11-30_15h41.01.735,global_local,2020.2.4,Win32,60,1366,768,,0,,f,0,2.964085,,,,,,,,,,,,,,,,,,,,,,4,0,16,1,1,,,,,
,,,,,,,,,,,,,,,1,5,largeScongr,Stimuli/SofS2.jpg,f,left,h,3,1,2020-11-30_15h41.01.735,global_local,2020.2.4,Win32,60,1366,768,,0,,f,1,0.993615,,,,,,,,,,,,,,,,,,,,,,4,1,17,2,1,,,,,
,,,,,,,,,,,,,,,1,1,largeHcongr,Stimuli/HofH2.jpg,j,left,h,3,1,2020-11-30_15h41.01.735,global_local,2020.2.4,Win32,60,1366,768,,0,,j,1,1.120095,,,,,,,,,,,,,,,,,,,,,,4,2,18,0,1,,,,,
,,,,,,,,,,,,,,,1,7,largeSincon,Stimuli/SofH2.jpg,f,left,h,3,1,2020-11-30_15h41.01.735,global_local,2020.2.4,Win32,60,1366,768,,1,,j,0,1.401475,,,,,,,,,,,,,,,,,,,,,,4,3,19,3,1,,,,,
,,,,,,,,,,,,,,,1,3,largeHincon,Stimuli/HofS2.jpg,j,left,h,3,1,2020-11-30_15h41.01.735,global_local,2020.2.4,Win32,60,1366,768,,0,,f,0,1.297425,,,,,,,,,,,,,,,,,,,,,,5,0,20,1,1,,,,,
,,,,,,,,,,,,,,,1,5,largeScongr,Stimuli/SofS2.jpg,f,left,h,3,1,2020-11-30_15h41.01.735,global_local,2020.2.4,Win32,60,1366,768,,1,,f,1,1.03397,,,,,,,,,,,,,,,,,,,,,,5,1,21,2,1,,,,,
,,,,,,,,,,,,,,,1,1,largeHcongr,Stimuli/HofH2.jpg,j,left,h,3,1,2020-11-30_15h41.01.735,global_local,2020.2.4,Win32,60,1366,768,,0,,j,1,1.47973,,,,,,,,,,,,,,,,,,,,,,5,2,22,0,1,,,,,
,,,,,,,,,,,,,,,1,7,largeSincon,Stimuli/SofH2.jpg,f,left,h,3,1,2020-11-30_15h41.01.735,global_local,2020.2.4,Win32,60,1366,768,,1,,j,0,1.388655,,,,,,,,,,,,,,,,,,,,,,5,3,23,3,1,,,,,
,,,,,,,,,,,,,,,2,5,smallScongr,Stimuli/SofS2.jpg,f,left,h,3,1,2020-11-30_15h41.01.735,global_local,2020.2.4,Win32,60,1366,768,,,,f,1,2.332345,,,,,,,,,,,,,,,0,,,,,,,,,,,,0,0,0,2,1
,,,,,,,,,,,,,,,2,3,smallHincon,Stimuli/SofH2.jpg,j,left,h,3,1,2020-11-30_15h41.01.735,global_local,2020.2.4,Win32,60,1366,768,,,,j,1,1.218015,,,,,,,,,,,,,,,0,,,,,,,,,,,,0,1,1,1,1
,,,,,,,,,,,,,,,2,1,smallHcongr,Stimuli/HofH2.jpg,j,left,h,3,1,2020-11-30_15h41.01.735,global_local,2020.2.4,Win32,60,1366,768,,,,j,1,1.087895,,,,,,,,,,,,,,,0,,,,,,,,,,,,0,2,2,0,1
,,,,,,,,,,,,,,,2,7,smallSincon,Stimuli/HofS2.jpg,f,left,h,3,1,2020-11-30_15h41.01.735,global_local,2020.2.4,Win32,60,1366,768,,,,f,1,1.0543,,,,,,,,,,,,,,,0,,,,,,,,,,,,0,3,3,3,1
,,,,,,,,,,,,,,,2,7,smallSincon,Stimuli/HofS2.jpg,f,left,h,3,1,2020-11-30_15h41.01.735,global_local,2020.2.4,Win32,60,1366,768,,,,f,1,1.09432,,,,,,,,,,,,,,,0,,,,,,,,,,,,1,0,4,3,1
,,,,,,,,,,,,,,,2,3,smallHincon,Stimuli/SofH2.jpg,j,left,h,3,1,2020-11-30_15h41.01.735,global_local,2020.2.4,Win32,60,1366,768,,,,j,1,1.218265,,,,,,,,,,,,,,,1,,,,,,,,,,,,1,1,5,1,1
,,,,,,,,,,,,,,,2,1,smallHcongr,Stimuli/HofH2.jpg,j,left,h,3,1,2020-11-30_15h41.01.735,global_local,2020.2.4,Win32,60,1366,768,,,,j,1,1.048675,,,,,,,,,,,,,,,0,,,,,,,,,,,,1,2,6,0,1
,,,,,,,,,,,,,,,2,5,smallScongr,Stimuli/SofS2.jpg,f,left,h,3,1,2020-11-30_15h41.01.735,global_local,2020.2.4,Win32,60,1366,768,,,,f,1,1.101175,,,,,,,,,,,,,,,1,,,,,,,,,,,,1,3,7,2,1
,,,,,,,,,,,,,,,2,3,smallHincon,Stimuli/SofH2.jpg,j,left,h,3,1,2020-11-30_15h41.01.735,global_local,2020.2.4,Win32,60,1366,768,,,,j,1,1.149735,,,,,,,,,,,,,,,0,,,,,,,,,,,,2,0,8,1,1
,,,,,,,,,,,,,,,2,1,smallHcongr,Stimuli/HofH2.jpg,j,left,h,3,1,2020-11-30_15h41.01.735,global_local,2020.2.4,Win32,60,1366,768,,,,j,1,1.021265,,,,,,,,,,,,,,,0,,,,,,,,,,,,2,1,9,0,1
,,,,,,,,,,,,,,,2,5,smallScongr,Stimuli/SofS2.jpg,f,left,h,3,1,2020-11-30_15h41.01.735,global_local,2020.2.4,Win32,60,1366,768,,,,f,1,0.99183,,,,,,,,,,,,,,,1,,,,,,,,,,,,2,2,10,2,1
,,,,,,,,,,,,,,,2,7,smallSincon,Stimuli/HofS2.jpg,f,left,h,3,1,2020-11-30_15h41.01.735,global_local,2020.2.4,Win32,60,1366,768,,,,f,1,1.22308,,,,,,,,,,,,,,,0,,,,,,,,,,,,2,3,11,3,1
,,,,,,,,,,,,,,,2,5,smallScongr,Stimuli/SofS2.jpg,f,left,h,3,1,2020-11-30_15h41.01.735,global_local,2020.2.4,Win32,60,1366,768,,,,f,1,1.12245,,,,,,,,,,,,,,,0,,,,,,,,,,,,3,0,12,2,1
,,,,,,,,,,,,,,,2,7,smallSincon,Stimuli/HofS2.jpg,f,left,h,3,1,2020-11-30_15h41.01.735,global_local,2020.2.4,Win32,60,1366,768,,,,f,1,1.506695,,,,,,,,,,,,,,,0,,,,,,,,,,,,3,1,13,3,1
,,,,,,,,,,,,,,,2,3,smallHincon,Stimuli/SofH2.jpg,j,left,h,3,1,2020-11-30_15h41.01.735,global_local,2020.2.4,Win32,60,1366,768,,,,j,1,1.250305,,,,,,,,,,,,,,,1,,,,,,,,,,,,3,2,14,1,1
,,,,,,,,,,,,,,,2,1,smallHcongr,Stimuli/HofH2.jpg,j,left,h,3,1,2020-11-30_15h41.01.735,global_local,2020.2.4,Win32,60,1366,768,,,,j,1,1.529285,,,,,,,,,,,,,,,0,,,,,,,,,,,,3,3,15,0,1
,,,,,,,,,,,,,,,2,1,smallHcongr,Stimuli/HofH2.jpg,j,left,h,3,1,2020-11-30_15h41.01.735,global_local,2020.2.4,Win32,60,1366,768,,,,j,1,1.16396,,,,,,,,,,,,,,,1,,,,,,,,,,,,4,0,16,0,1
,,,,,,,,,,,,,,,2,7,smallSincon,Stimuli/HofS2.jpg,f,left,h,3,1,2020-11-30_15h41.01.735,global_local,2020.2.4,Win32,60,1366,768,,,,f,1,1.10057,,,,,,,,,,,,,,,0,,,,,,,,,,,,4,1,17,3,1
,,,,,,,,,,,,,,,2,5,smallScongr,Stimuli/SofS2.jpg,f,left,h,3,1,2020-11-30_15h41.01.735,global_local,2020.2.4,Win32,60,1366,768,,,,f,1,1.353995,,,,,,,,,,,,,,,0,,,,,,,,,,,,4,2,18,2,1
,,,,,,,,,,,,,,,2,3,smallHincon,Stimuli/SofH2.jpg,j,left,h,3,1,2020-11-30_15h41.01.735,global_local,2020.2.4,Win32,60,1366,768,,,,f,0,1.15846,,,,,,,,,,,,,,,0,,,,,,,,,,,,4,3,19,1,1
,,,,,,,,,,,,,,,2,1,smallHcongr,Stimuli/HofH2.jpg,j,left,h,3,1,2020-11-30_15h41.01.735,global_local,2020.2.4,Win32,60,1366,768,,,,j,1,1.13044,,,,,,,,,,,,,,,0,,,,,,,,,,,,5,0,20,0,1
,,,,,,,,,,,,,,,2,7,smallSincon,Stimuli/HofS2.jpg,f,left,h,3,1,2020-11-30_15h41.01.735,global_local,2020.2.4,Win32,60,1366,768,,,,f,1,1.201225,,,,,,,,,,,,,,,1,,,,,,,,,,,,5,1,21,3,1
,,,,,,,,,,,,,,,2,5,smallScongr,Stimuli/SofS2.jpg,f,left,h,3,1,2020-11-30_15h41.01.735,global_local,2020.2.4,Win32,60,1366,768,,,,f,1,1.0046,,,,,,,,,,,,,,,0,,,,,,,,,,,,5,2,22,2,1
,,,,,,,,,,,,,,,2,3,smallHincon,Stimuli/SofH2.jpg,j,left,h,3,1,2020-11-30_15h41.01.735,global_local,2020.2.4,Win32,60,1366,768,,,,j,1,1.225845,,,,,,,,,,,,,,,0,,,,,,,,,,,,5,3,23,1,1
