trialNum,runs.thisRepN,runs.thisTrialN,runs.thisN,runs.thisIndex,feat_face_loop.thisRepN,feat_face_loop.thisTrialN,feat_face_loop.thisN,feat_face_loop.thisIndex,conf_haus_loop.thisRepN,conf_haus_loop.thisTrialN,conf_haus_loop.thisN,conf_haus_loop.thisIndex,conf_face_loop.thisRepN,conf_face_loop.thisTrialN,conf_face_loop.thisN,conf_face_loop.thisIndex,feat_haus_loop.thisRepN,feat_haus_loop.thisTrialN,feat_haus_loop.thisN,feat_haus_loop.thisIndex,face_instructions.started,face_instructions.stopped,start_exp_press.keys,start_exp_press.rt,start_exp_press.started,start_exp_press.stopped,target_image1.started,target_image1.stopped,ISI_1.started,ISI_1.stopped,probe_image1.started,probe_image1.stopped,key_resp.keys,key_resp.corr,key_resp.rt,key_resp.started,key_resp.stopped,haus_instructions.started,haus_instructions.stopped,start_run2.keys,start_run2.rt,start_run2.started,start_run2.stopped,target_image2.started,target_image2.stopped,probe_image2.started,probe_image2.stopped,ISI_2.started,ISI_2.stopped,target_image3.started,target_image3.stopped,probe_image3.started,probe_image3.stopped,ISI_3.started,ISI_3.stopped,participant,session,date,expName,psychopyVersion,frameRate,
0,0,0,0,0,0,0,0,0,,,,,,,,,,,,,15.066082141012885,None,space,2.9237826429889537,15.066082141012885,None,18.072017827013042,18.566250430012587,0.2107793086906895,0.5107793086906895,18.588104939030018,18.793324225000106,s,0,0.7277734389645047,18.741382550040726,None,,,,,,,,,,,,,,,,,,,check,001,2020_Sep_24_0203,config_feat_task,2020.2.4,None,
1,0,0,0,0,0,1,1,1,,,,,,,,,,,,,,,,,,,19.50811141304439,19.999617747031152,0.19942532025743276,0.49942532025743275,20.007562618004158,20.207967021036893,d,0,0.5188488959684037,20.17464978300268,None,,,,,,,,,,,,,,,,,,,check,001,2020_Sep_24_0203,config_feat_task,2020.2.4,None,
2,0,0,0,0,0,2,2,2,,,,,,,,,,,,,,,,,,,20.72411114204442,20.924639163014945,0.20082384371198714,0.5008238437119872,21.241024741029833,21.4413078710204,d,0,0.5438516070134938,21.4080072180368,None,,,,,,,,,,,,,,,,,,,check,001,2020_Sep_24_0203,config_feat_task,2020.2.4,None,
3,0,0,0,0,0,3,3,3,,,,,,,,,,,,,,,,,,,21.97429673699662,22.174689917999785,0.20690823369659483,0.5069082336965949,22.50417902704794,22.708022698003333,s,0,0.32422851800220087,22.664465661044233,None,,,,,,,,,,,,,,,,,,,check,001,2020_Sep_24_0203,config_feat_task,2020.2.4,None,
4,0,0,0,0,0,4,4,4,,,,,,,,,,,,,,,,,,,23.007801957021,23.20797011302784,0.2050085836672224,0.5050085836672225,23.524214578035753,23.72648603701964,s,0,0.3396494329790585,23.692939843051136,None,,,,,,,,,,,,,,,,,,,check,001,2020_Sep_24_0203,config_feat_task,2020.2.4,None,
5,0,0,0,0,0,5,5,5,,,,,,,,,,,,,,,,,,,24.076464190031402,24.582960636995267,0.20865149062592536,0.5086514906259254,24.60450307704741,24.80813511600718,d,0,0.47465531004127115,24.75971984199714,None,,,,,,,,,,,,,,,,,,,check,001,2020_Sep_24_0203,config_feat_task,2020.2.4,None,
6,0,0,0,0,0,6,6,6,,,,,,,,,,,,,,,,,,,25.25784067704808,25.45967059704708,0.2030940216500312,0.5030940216500313,25.787644338037353,25.99147253704723,s,0,0.6818365209619515,25.94312220904976,None,,,,,,,,,,,,,,,,,,,check,001,2020_Sep_24_0203,config_feat_task,2020.2.4,None,
7,0,0,0,0,0,7,7,7,,,,,,,,,,,,,,,,,,,26.641031975043006,26.841468004044145,0.2043212306452915,0.5043212306452916,27.157616697018966,27.359454443037976,d,0,0.48863515502307564,27.32620367902564,None,,,,,,,,,,,,,,,,,,,check,001,2020_Sep_24_0203,config_feat_task,2020.2.4,None,
8,0,0,0,0,0,8,8,8,,,,,,,,,,,,,,,,,,,27.84110514202621,28.041310461994726,0.20140318665653467,0.5014031866565347,28.35745670204051,28.557825358002447,s,0,0.25218435004353523,28.524658683047164,None,,,,,,,,,,,,,,,,,,,check,001,2020_Sep_24_0203,config_feat_task,2020.2.4,None,
9,0,0,0,0,0,9,9,9,,,,,,,,,,,,,,,,,,,28.80735978402663,29.007985779026058,0.19984957471024245,0.49984957471024244,29.32432365603745,29.52469299500808,s,0,0.31836170301539823,29.49145115702413,None,,,,,,,,,,,,,,,,,,,check,001,2020_Sep_24_0203,config_feat_task,2020.2.4,None,
10,0,0,0,0,0,10,10,10,,,,,,,,,,,,,,,,,,,29.840792859031353,30.041328389022965,0.20100975065724924,0.5010097506572493,30.357641602051444,30.559799711045343,s,0,0.29028761002700776,30.52642711001681,None,,,,,,,,,,,,,,,,,,,check,001,2020_Sep_24_0203,config_feat_task,2020.2.4,None,
11,0,0,0,0,0,11,11,11,,,,,,,,,,,,,,,,,,,30.84118067403324,31.041313713998534,0.20201430068118498,0.502014300681185,31.357648183009587,31.559877153020352,d,0,0.18949422700097784,31.52655055001378,None,,,,,,,,,,,,,,,,,,,check,001,2020_Sep_24_0203,config_feat_task,2020.2.4,None,
12,0,0,0,0,0,12,12,12,,,,,,,,,,,,,,,,,,,31.740848068031482,31.941520846041385,0.20023388566914946,0.5002338856691495,32.25775467901258,32.458118742040824,d,0,0.15892336802789941,32.441457622044254,None,,,,,,,,,,,,,,,,,,,check,001,2020_Sep_24_0203,config_feat_task,2020.2.4,None,
13,0,0,0,0,0,13,13,13,,,,,,,,,,,,,,,,,,,32.624162179999985,32.82482720504049,0.20143926166929305,0.5014392616692931,33.14089105499443,33.34344612201676,s,0,0.12139237497467548,33.30974618304754,None,,,,,,,,,,,,,,,,,,,check,001,2020_Sep_24_0203,config_feat_task,2020.2.4,None,
14,0,0,0,0,0,14,14,14,,,,,,,,,,,,,,,,,,,33.457780946046114,33.658103361027315,0.2009777626954019,0.500977762695402,33.974492165027186,34.17652481299592,d,0,0.1221352270222269,34.141441063024104,None,,,,,,,,,,,,,,,,,,,check,001,2020_Sep_24_0203,config_feat_task,2020.2.4,None,
15,0,0,0,0,0,15,15,15,,,,,,,,,,,,,,,,,,,34.291009982000105,34.49139828601619,0.20105353964027017,0.5010535396402702,34.80776595603675,35.00811345904367,s,0,0.11242506199050695,34.99146154202754,None,,,,,,,,,,,,,,,,,,,check,001,2020_Sep_24_0203,config_feat_task,2020.2.4,None,
16,0,0,0,0,0,16,16,16,,,,,,,,,,,,,,,,,,,35.12465379101923,35.32642703602323,0.2036830157157965,0.5036830157157965,35.654696409008466,35.859898235998116,d,0,1.422927338979207,35.80822096799966,None,,,,,,,,,,,,,,,,,,,check,001,2020_Sep_24_0203,config_feat_task,2020.2.4,None,
17,0,0,0,0,0,17,17,17,,,,,,,,,,,,,,,,,,,37.257585625047795,37.45977147604572,0.19948665867559612,0.4994866586755961,37.78791492403252,37.993272665014956,d,0,0.4820280679850839,37.94305931101553,None,,,,,,,,,,,,,,,,,,,check,001,2020_Sep_24_0203,config_feat_task,2020.2.4,None,
18,0,0,0,0,0,18,18,18,,,,,,,,,,,,,,,,,,,38.47642882500077,38.674817447026726,0.21413725864840671,0.5141372586484068,38.99100380099844,39.19140421401244,d,0,0.6148285300005227,39.158030629041605,None,,,,,,,,,,,,,,,,,,,check,001,2020_Sep_24_0203,config_feat_task,2020.2.4,None,
19,0,0,0,0,0,19,19,19,,,,,,,,,,,,,,,,,,,39.791165158036165,39.99140401202021,0.2047235246282071,0.5047235246282071,40.30752545403084,40.50804795703152,d,0,0.7906405789544806,40.474822040006984,None,,,,,,,,,,,,,,,,,,,check,001,2020_Sep_24_0203,config_feat_task,2020.2.4,None,
20,0,0,0,0,0,20,20,20,,,,,,,,,,,,,,,,,,,41.29121064802166,41.49308679503156,0.20199317566584796,0.501993175665848,41.821322987030726,42.0249759349972,d,0,0.44109486299566925,41.97646925301524,None,,,,,,,,,,,,,,,,,,,check,001,2020_Sep_24_0203,config_feat_task,2020.2.4,None,
21,0,0,0,0,0,21,21,21,,,,,,,,,,,,,,,,,,,42.441394816036336,42.641610707039945,0.20258332265075296,0.502583322650753,42.95777038502274,43.15827275702031,s,0,0.39820570999290794,43.12483467301354,None,,,,,,,,,,,,,,,,,,,check,001,2020_Sep_24_0203,config_feat_task,2020.2.4,None,
22,0,0,0,0,0,22,22,22,,,,,,,,,,,,,,,,,,,43.541228712012526,43.741604965995066,0.20452136162202805,0.5045213616220281,44.05781033000676,44.2582786870189,s,0,0.33477446797769517,44.22495457303012,None,,,,,,,,,,,,,,,,,,,check,001,2020_Sep_24_0203,config_feat_task,2020.2.4,None,
23,0,0,0,0,0,23,23,23,,,,,,,,,,,,,,,,,,,44.59151571703842,44.791558133030776,0.19942332874052227,0.49942332874052225,45.10784912202507,45.308187999995425,s,0,0.17338439403101802,45.274920612049755,None,,,,,,,,,,,,,,,,,,,check,001,2020_Sep_24_0203,config_feat_task,2020.2.4,None,
0,0,0,0,0,,,,,0,0,0,0,,,,,,,,,,,,,,,,,,,,,s,0,0.22048458200879395,47.77487371704774,None,45.47483048104914,None,space,1.5735005179885775,45.47483048104914,None,47.0914244580199,47.29137156199431,47.60755159199471,47.808028059022035,0.21479495335370302,0.5147949533537031,,,,,,,check,001,2020_Sep_24_0203,config_feat_task,2020.2.4,None,
1,0,0,0,0,,,,,0,1,1,1,,,,,,,,,,,,,,,,,,,,,s,0,0.20869684097124264,48.70802467002068,None,,,,,,,48.02457090502139,48.226502096047625,48.55440699501196,48.75970853201579,0.20217362063704059,0.5021736206370406,,,,,,,check,001,2020_Sep_24_0203,config_feat_task,2020.2.4,None,
2,0,0,0,0,,,,,0,2,2,2,,,,,,,,,,,,,,,,,,,,,d,0,0.22328787902370095,49.64297349000117,None,,,,,,,48.95814311201684,49.15800701704575,49.4876729210373,49.69148763502017,0.1996563426218927,0.4996563426218927,,,,,,,check,001,2020_Sep_24_0203,config_feat_task,2020.2.4,None,
3,0,0,0,0,,,,,0,3,3,3,,,,,,,,,,,,,,,,,,,,,d,0,0.12307077797595412,50.57476424402557,None,,,,,,,49.891236533003394,50.091580862004776,50.40754670300521,50.608258290041704,0.20196968264644966,0.5019696826464497,,,,,,,check,001,2020_Sep_24_0203,config_feat_task,2020.2.4,None,
4,0,0,0,0,,,,,0,4,4,4,,,,,,,,,,,,,,,,,,,,,s,0,0.22527870401972905,51.40805107302731,None,,,,,,,50.72475751902675,50.92493436904624,51.240779814019334,51.44159362302162,0.20565106463618577,0.5056510646361858,,,,,,,check,001,2020_Sep_24_0203,config_feat_task,2020.2.4,None,
5,0,0,0,0,,,,,0,5,5,5,,,,,,,,,,,,,,,,,,,,,d,0,0.07720954500837252,52.35506530100247,None,,,,,,,51.65763642301317,51.85836381203262,52.17430021101609,52.39131689199712,0.2006587567157112,0.5006587567157113,,,,,,,check,001,2020_Sep_24_0203,config_feat_task,2020.2.4,None,
6,0,0,0,0,,,,,0,6,6,6,,,,,,,,,,,,,,,,,,,,,s,0,0.11013101600110531,53.15828724001767,None,,,,,,,52.476664954039734,52.983120648015756,53.004713881004136,53.2083530400414,0.21155803964938968,0.5115580396493897,,,,,,,check,001,2020_Sep_24_0203,config_feat_task,2020.2.4,None,
7,0,0,0,0,,,,,0,7,7,7,,,,,,,,,,,,,,,,,,,,,d,0,0.05149793700547889,53.97662422800204,None,,,,,,,53.29162793100113,53.491676013043616,53.83312563505024,54.04157674004091,0.21152424666797742,0.5115242466679775,,,,,,,check,001,2020_Sep_24_0203,config_feat_task,2020.2.4,None,
8,0,0,0,0,,,,,0,8,8,8,,,,,,,,,,,,,,,,,,,,,s,0,0.07293022703379393,54.74340941203991,None,,,,,,,54.05727259104606,54.25836358504603,54.57443385000806,54.77656945300987,0.20722038066014647,0.5072203806601465,,,,,,,check,001,2020_Sep_24_0203,config_feat_task,2020.2.4,None,
9,0,0,0,0,,,,,0,9,9,9,,,,,,,,,,,,,,,,,,,,,d,0,0.02166030096122995,55.52668309904402,None,,,,,,,54.84143620100804,55.0417586590047,55.38501368102152,None,0.20796273363521323,0.5079627336352133,,,,,,,check,001,2020_Sep_24_0203,config_feat_task,2020.2.4,None,
10,0,0,0,0,,,,,0,10,10,10,,,,,,,,,,,,,,,,,,,,,d,0,0.17169448401546106,56.2766945050098,None,,,,,,,55.59342404699419,56.09165307204239,56.09165307204239,56.29173917300068,0.19917491864180192,0.4991749186418019,,,,,,,check,001,2020_Sep_24_0203,config_feat_task,2020.2.4,None,
11,0,0,0,0,,,,,0,11,11,11,,,,,,,,,,,,,,,,,,,,,d,0,0.028208765026647598,57.159992494038306,None,,,,,,,56.47506827802863,56.676586560031865,57.00465979304863,None,0.20956442464375868,0.5095644246437587,,,,,,,check,001,2020_Sep_24_0203,config_feat_task,2020.2.4,None,
12,0,0,0,0,,,,,0,12,12,12,,,,,,,,,,,,,,,,,,,,,s,0,0.30059065599925816,57.893177602032665,None,,,,,,,57.20809257501969,57.40824112104019,57.72454474301776,57.926605292013846,0.20913775666849688,0.5091377566684969,,,,,,,check,001,2020_Sep_24_0203,config_feat_task,2020.2.4,None,
13,0,0,0,0,,,,,0,13,13,13,,,,,,,,,,,,,,,,,,,,,d,0,0.0618624470080249,58.90839551604586,None,,,,,,,58.22484467702452,58.425074524013326,58.741398400045,58.94173038203735,0.20686537557048723,0.5068653755704873,,,,,,,check,001,2020_Sep_24_0203,config_feat_task,2020.2.4,None,
14,0,0,0,0,,,,,0,14,14,14,,,,,,,,,,,,,,,,,,,,,s,0,0.11536810698453337,59.6749617769965,None,,,,,,,58.9908481350285,59.191579987003934,59.50791881803889,59.70838811801514,0.2112921066582203,0.5112921066582203,,,,,,,check,001,2020_Sep_24_0203,config_feat_task,2020.2.4,None,
15,0,0,0,0,,,,,0,15,15,15,,,,,,,,,,,,,,,,,,,,,d,0,0.13297221902757883,60.493339031003416,None,,,,,,,59.807800205016974,60.01021338603459,60.338057011016645,60.541638809023425,0.19983993069035932,0.4998399306903593,,,,,,,check,001,2020_Sep_24_0203,config_feat_task,2020.2.4,None,
16,0,0,0,0,,,,,0,16,16,16,,,,,,,,,,,,,,,,,,,,,s,0,0.04135005903663114,61.32504092302406,None,,,,,,,60.641426369023975,60.84170837502461,61.15796326805139,61.35830436501419,0.20869145268807188,0.5086914526880719,,,,,,,check,001,2020_Sep_24_0203,config_feat_task,2020.2.4,None,
17,0,0,0,0,,,,,0,17,17,17,,,,,,,,,,,,,,,,,,,,,d,0,0.0833565829670988,62.07501287502237,None,,,,,,,61.391454015043564,61.59143431100529,61.90793568600202,62.10825672902865,0.20635471161222085,0.5063547116122209,,,,,,,check,001,2020_Sep_24_0203,config_feat_task,2020.2.4,None,
18,0,0,0,0,,,,,0,18,18,18,,,,,,,,,,,,,,,,,,,,,d,0,0.2567433069925755,62.86005380703136,None,,,,,,,62.175135819008574,62.376617086003534,62.70468070101924,62.91005124000367,0.20776800269959494,0.507768002699595,,,,,,,check,001,2020_Sep_24_0203,config_feat_task,2020.2.4,None,
19,0,0,0,0,,,,,0,19,19,19,,,,,,,,,,,,,,,,,,,,,d,0,0.3324647219851613,63.82605977001367,None,,,,,,,63.141513243026566,63.34152099402854,63.6579424260417,63.859980907000136,0.20512726565357298,0.505127265653573,,,,,,,check,001,2020_Sep_24_0203,config_feat_task,2020.2.4,None,
20,0,0,0,0,,,,,0,20,20,20,,,,,,,,,,,,,,,,,,,,,s,0,0.04262724798172712,64.86004247999517,None,,,,,,,64.1747764100437,64.37493489700137,64.69085207401076,64.89338307402795,0.20876974862767383,0.5087697486276739,,,,,,,check,001,2020_Sep_24_0203,config_feat_task,2020.2.4,None,
21,0,0,0,0,,,,,0,21,21,21,,,,,,,,,,,,,,,,,,,,,d,0,0.08483709499705583,65.60984877601732,None,,,,,,,64.92509233800229,65.12509155302541,65.44137486402178,65.64335689099971,0.21148854470811784,0.5114885447081179,,,,,,,check,001,2020_Sep_24_0203,config_feat_task,2020.2.4,None,
22,0,0,0,0,,,,,0,22,22,22,,,,,,,,,,,,,,,,,,,,,d,0,0.33828309504315257,66.40843283099821,None,,,,,,,65.7248483330477,65.92507925099926,66.24135001603281,66.44412417302374,0.2058622956974432,0.5058622956974432,,,,,,,check,001,2020_Sep_24_0203,config_feat_task,2020.2.4,None,
23,0,0,0,0,,,,,0,23,23,23,,,,,,,,,,,,,,,,,,,,,s,0,0.09946583502460271,67.46012310503284,None,,,,,,,66.77472091000527,66.9750465330435,67.29132747504627,67.49367018503835,0.20736930461134762,0.5073693046113477,,,,,,,check,001,2020_Sep_24_0203,config_feat_task,2020.2.4,None,
0,0,0,0,0,,,,,,,,,0,0,0,0,,,,,67.5747764360276,None,space,0.8682533609680831,67.5747764360276,None,,,,,,,s,0,0.4420085339806974,69.16004914900986,None,,,,,,,,,,,,,68.47498983802507,68.67503580503399,68.99137045600219,69.19330325204646,0.21363567135995254,0.5136356713599526,check,001,2020_Sep_24_0203,config_feat_task,2020.2.4,None,
1,0,0,0,0,,,,,,,,,0,1,1,1,,,,,,,,,,,,,,,,,s,0,0.3123208850156516,70.30835312901763,None,,,,,,,,,,,,,69.62473157001659,69.8249249740038,70.14138300699415,70.34166056005051,0.2012865186552517,0.5012865186552518,check,001,2020_Sep_24_0203,config_feat_task,2020.2.4,None,
2,0,0,0,0,,,,,,,,,0,2,2,2,,,,,,,,,,,,,,,,,s,0,0.2643142419983633,71.32508708204841,None,,,,,,,,,,,,,70.64158066804521,70.84174981003162,71.15803359705023,71.35835632804083,0.20394820667570457,0.5039482066757046,check,001,2020_Sep_24_0203,config_feat_task,2020.2.4,None,
3,0,0,0,0,,,,,,,,,0,3,3,3,,,,,,,,,,,,,,,,,s,0,0.3056845039827749,72.30983153404668,None,,,,,,,,,,,,,71.60760776902316,71.80811438005185,72.15467230801005,72.35810308204964,0.2138301606173627,0.5138301606173628,check,001,2020_Sep_24_0203,config_feat_task,2020.2.4,None,
4,0,0,0,0,,,,,,,,,0,4,4,4,,,,,,,,,,,,,,,,,d,0,0.3461130929645151,73.3247633750434,None,,,,,,,,,,,,,72.64154371799668,72.84142992203124,73.15772646199912,73.3580307450029,0.19969897472765297,0.49969897472765296,check,001,2020_Sep_24_0203,config_feat_task,2020.2.4,None,
5,0,0,0,0,,,,,,,,,0,5,5,5,,,,,,,,,,,,,,,,,d,0,0.1297581969993189,74.37477144901641,None,,,,,,,,,,,,,73.6913662099978,73.89144301402848,74.20770738302963,74.40818639902864,0.20502673060400411,0.5050267306040042,check,001,2020_Sep_24_0203,config_feat_task,2020.2.4,None,
6,0,0,0,0,,,,,,,,,0,6,6,6,,,,,,,,,,,,,,,,,d,0,0.26602366904262453,75.22648778604344,None,,,,,,,,,,,,,74.54147808701964,74.74142487702193,75.05771984701278,75.25981294101803,0.21408480231184512,0.5140848023118452,check,001,2020_Sep_24_0203,config_feat_task,2020.2.4,None,
7,0,0,0,0,,,,,,,,,0,7,7,7,,,,,,,,,,,,,,,,,d,0,0.32680043496657163,76.20810780004831,None,,,,,,,,,,,,,75.52478535100818,75.72480043099495,76.04117949504871,76.24145695305197,0.20255923765944317,0.5025592376594432,check,001,2020_Sep_24_0203,config_feat_task,2020.2.4,None,
8,0,0,0,0,,,,,,,,,0,8,8,8,,,,,,,,,,,,,,,,,d,0,0.26505556202027947,77.24177744804183,None,,,,,,,,,,,,,76.55798452103045,76.75843893003184,77.0751598229981,77.27503488701768,0.20380328461760655,0.5038032846176066,check,001,2020_Sep_24_0203,config_feat_task,2020.2.4,None,
9,0,0,0,0,,,,,,,,,0,9,9,9,,,,,,,,,,,,,,,,,d,0,0.2895343580166809,78.225199661043,None,,,,,,,,,,,,,77.5434304040391,77.74185834004311,78.05771822400857,78.25843788904604,0.2122805136605166,0.5122805136605166,check,001,2020_Sep_24_0203,config_feat_task,2020.2.4,None,
10,0,0,0,0,,,,,,,,,0,10,10,10,,,,,,,,,,,,,,,,,d,0,0.28645386203425005,79.24338352202903,None,,,,,,,,,,,,,78.56087908701738,79.06661958200857,79.08825528103625,79.29185314202914,0.20365336665418,0.50365336665418,check,001,2020_Sep_24_0203,config_feat_task,2020.2.4,None,
11,0,0,0,0,,,,,,,,,0,11,11,11,,,,,,,,,,,,,,,,,d,0,0.24889669398544356,80.25853453803575,None,,,,,,,,,,,,,79.57507529499708,79.77514747099485,80.09127292403718,80.29188878601417,0.20804239570861682,0.5080423957086169,check,001,2020_Sep_24_0203,config_feat_task,2020.2.4,None,
12,0,0,0,0,,,,,,,,,0,12,12,12,,,,,,,,,,,,,,,,,d,0,0.33855509699787945,81.22671047603944,None,,,,,,,,,,,,,80.54346890503075,81.05002473201603,81.07171808701241,81.27515252900776,0.21135202562436461,0.5113520256243647,check,001,2020_Sep_24_0203,config_feat_task,2020.2.4,None,
13,0,0,0,0,,,,,,,,,0,13,13,13,,,,,,,,,,,,,,,,,d,0,0.2579697989858687,82.27515929302899,None,,,,,,,,,,,,,81.5913194839959,81.79183522600215,82.1079647600418,82.30857827403815,0.19983816059539095,0.49983816059539093,check,001,2020_Sep_24_0203,config_feat_task,2020.2.4,None,
14,0,0,0,0,,,,,,,,,0,14,14,14,,,,,,,,,,,,,,,,,d,0,0.2692027830053121,83.24194282799726,None,,,,,,,,,,,,,82.55829098401591,82.7585298170452,83.07480183400912,83.2751896980335,0.20418253965908661,0.5041825396590867,check,001,2020_Sep_24_0203,config_feat_task,2020.2.4,None,
15,0,0,0,0,,,,,,,,,0,15,15,15,,,,,,,,,,,,,,,,,d,0,0.18307925399858505,84.22686517902184,None,,,,,,,,,,,,,83.54092813801253,83.74357501999475,84.07169335603248,84.27514184103347,0.20108804665505886,0.5010880466550589,check,001,2020_Sep_24_0203,config_feat_task,2020.2.4,None,
16,0,0,0,0,,,,,,,,,0,16,16,16,,,,,,,,,,,,,,,,,d,0,0.07841254601953551,85.14342531404691,None,,,,,,,,,,,,,84.46067919599591,84.96665677602869,84.98830944404472,85.19182132999413,0.20478031074162573,0.5047803107416258,check,001,2020_Sep_24_0203,config_feat_task,2020.2.4,None,
17,0,0,0,0,,,,,,,,,0,17,17,17,,,,,,,,,,,,,,,,,d,0,0.36552061000838876,85.94188390404452,None,,,,,,,,,,,,,85.25848054204835,85.45860830403399,85.77478659903863,85.9751739660278,0.21794956334633753,0.5179495633463376,check,001,2020_Sep_24_0203,config_feat_task,2020.2.4,None,
18,0,0,0,0,,,,,,,,,0,18,18,18,,,,,,,,,,,,,,,,,d,0,0.3653771749814041,87.00835817301413,None,,,,,,,,,,,,,86.3247919450514,86.52518495899858,86.84138944902224,87.04187935200753,0.2051811457495205,0.5051811457495206,check,001,2020_Sep_24_0203,config_feat_task,2020.2.4,None,
19,0,0,0,0,,,,,,,,,0,19,19,19,,,,,,,,,,,,,,,,,d,0,0.79535388603108,88.07510236103553,None,,,,,,,,,,,,,87.39181453699712,87.59179401904112,87.90782624500571,88.1101421880303,0.20403391867876053,0.5040339186787606,check,001,2020_Sep_24_0203,config_feat_task,2020.2.4,None,
20,0,0,0,0,,,,,,,,,0,20,20,20,,,,,,,,,,,,,,,,,d,0,0.6252103510196321,89.57513462600764,None,,,,,,,,,,,,,88.8915175840375,89.09177798801102,89.4080568200443,89.61018183000851,0.20475577167235315,0.5047557716723532,check,001,2020_Sep_24_0203,config_feat_task,2020.2.4,None,
21,0,0,0,0,,,,,,,,,0,21,21,21,,,,,,,,,,,,,,,,,d,0,0.3734326889971271,90.90846082102507,None,,,,,,,,,,,,,90.22432362800464,90.4251618310227,90.74147850903682,90.94187255104771,0.20214631769340485,0.5021463176934049,check,001,2020_Sep_24_0203,config_feat_task,2020.2.4,None,
22,0,0,0,0,,,,,,,,,0,22,22,22,,,,,,,,,,,,,,,,,d,0,0.5482719009742141,92.0100333680166,None,,,,,,,,,,,,,91.32680184603669,91.83330959704472,91.85468114801915,92.05831844505155,0.2067048236494884,0.5067048236494884,check,001,2020_Sep_24_0203,config_feat_task,2020.2.4,None,
23,0,0,0,0,,,,,,,,,0,23,23,23,,,,,,,,,,,,,,,,,d,0,0.06606591201853007,93.26010886701988,None,,,,,,,,,,,,,92.57487659202889,92.77677265403327,93.10475226101698,93.30819958104985,0.20329416065942496,0.503294160659425,check,001,2020_Sep_24_0203,config_feat_task,2020.2.4,None,
,,,,,,,,,,,,,,,,,,,,,,,,,,,,,,,,,,,,,,93.3415358090424,None,space,0.8728393869823776,93.3415358090424,None,,,,,,,,,,,,,,,,,,,
