trialNum,runs.thisRepN,runs.thisTrialN,runs.thisN,runs.thisIndex,feat_face_loop.thisRepN,feat_face_loop.thisTrialN,feat_face_loop.thisN,feat_face_loop.thisIndex,conf_haus_loop.thisRepN,conf_haus_loop.thisTrialN,conf_haus_loop.thisN,conf_haus_loop.thisIndex,conf_face_loop.thisRepN,conf_face_loop.thisTrialN,conf_face_loop.thisN,conf_face_loop.thisIndex,feat_haus_loop.thisRepN,feat_haus_loop.thisTrialN,feat_haus_loop.thisN,feat_haus_loop.thisIndex,face_instructions.started,face_instructions.stopped,start_exp_press.keys,start_exp_press.rt,start_exp_press.started,start_exp_press.stopped,target_image1.started,target_image1.stopped,ISI_1.started,ISI_1.stopped,probe_image1.started,probe_image1.stopped,key_resp1.keys,key_resp1.corr,key_resp1.rt,key_resp1.started,key_resp1.stopped,haus_instructions.started,haus_instructions.stopped,start_run2.keys,start_run2.rt,start_run2.started,start_run2.stopped,target_image2.started,target_image2.stopped,probe_image2.started,probe_image2.stopped,ISI_2.started,ISI_2.stopped,key_resp2.keys,key_resp2.corr,key_resp2.rt,key_resp2.started,key_resp2.stopped,target_image3.started,target_image3.stopped,probe_image3.started,probe_image3.stopped,ISI_3.started,ISI_3.stopped,key_resp3.keys,key_resp3.corr,key_resp3.rt,key_resp3.started,key_resp3.stopped,target_image4.started,target_image4.stopped,probe_image4.started,probe_image4.stopped,ISI_4.started,ISI_4.stopped,key_resp4.keys,key_resp4.corr,key_resp4.rt,key_resp4.started,key_resp4.stopped,participant,session,date,expName,psychopyVersion,frameRate,
0,0,0,0,0,0,0,0,0,,,,,,,,,,,,,14.54010336700594,None,space,1.14637562003918,14.54010336700594,None,15.773333791992627,16.273561623995192,0.21316688595106825,0.5131668859510683,16.28155826998409,16.481907234992832,s,0,0.3735932690324262,16.448332352971192,None,,,,,,,,,,,,,,,,,,,,,,,,,,,,,,,,,,,,,,,,sic,001,2020_Sep_23_2315,config_feat_task,2020.2.4,None,
1,0,0,0,0,0,1,1,1,,,,,,,,,,,,,,,,,,,16.866472035006154,17.37347684398992,0.2108106396626681,0.5108106396626682,17.39465835795272,17.598297206975985,d,0,0.48055294097866863,17.550161952967755,None,,,,,,,,,,,,,,,,,,,,,,,,,,,,,,,,,,,,,,,,sic,001,2020_Sep_23_2315,config_feat_task,2020.2.4,None,
2,0,0,0,0,0,2,2,2,,,,,,,,,,,,,,,,,,,18.048662339977454,18.250254751998,0.214213898696471,0.514213898696471,18.581507363007404,18.78361544496147,d,0,0.3564602800179273,18.75005378999049,None,,,,,,,,,,,,,,,,,,,,,,,,,,,,,,,,,,,,,,,,sic,001,2020_Sep_23_2315,config_feat_task,2020.2.4,None,
3,0,0,0,0,0,3,3,3,,,,,,,,,,,,,,,,,,,19.14994764595758,19.348326264007483,0.2142731536878273,0.5142731536878273,19.66472550999606,19.866842197952792,s,0,0.37176920898491517,19.833671614003833,None,,,,,,,,,,,,,,,,,,,,,,,,,,,,,,,,,,,,,,,,sic,001,2020_Sep_23_2315,config_feat_task,2020.2.4,None,
4,0,0,0,0,0,4,4,4,,,,,,,,,,,,,,,,,,,20.250367140979506,20.757069712970406,0.20871362363686785,0.5087136236368679,20.7787245149957,20.98199633898912,s,0,0.4831801399705,20.93390945799183,None,,,,,,,,,,,,,,,,,,,,,,,,,,,,,,,,,,,,,,,,sic,001,2020_Sep_23_2315,config_feat_task,2020.2.4,None,
5,0,0,0,0,0,5,5,5,,,,,,,,,,,,,,,,,,,21.448137273953762,21.64825878996635,0.1998505697119981,0.4998505697119981,21.964929958980065,22.166987692005932,d,0,0.45206289005000144,22.148416519979946,None,,,,,,,,,,,,,,,,,,,,,,,,,,,,,,,,,,,,,,,,sic,001,2020_Sep_23_2315,config_feat_task,2020.2.4,None,
6,0,0,0,0,0,6,6,6,,,,,,,,,,,,,,,,,,,22.63165532995481,22.832032746984623,0.19956001866376027,0.49956001866376026,23.14821060898248,23.350290015980136,d,0,0.5240408239769749,23.33175986999413,None,,,,,,,,,,,,,,,,,,,,,,,,,,,,,,,,,,,,,,,,sic,001,2020_Sep_23_2315,config_feat_task,2020.2.4,None,
7,0,0,0,0,0,7,7,7,,,,,,,,,,,,,,,,,,,23.881498183007352,24.081704992975574,0.2029264807351865,0.5029264807351865,24.398106317967176,24.5988681219751,s,0,0.5620686929905787,24.565351485973224,None,,,,,,,,,,,,,,,,,,,,,,,,,,,,,,,,,,,,,,,,sic,001,2020_Sep_23_2315,config_feat_task,2020.2.4,None,
8,0,0,0,0,0,8,8,8,,,,,,,,,,,,,,,,,,,25.147844669001643,25.350340301985852,0.2001094316947274,0.5001094316947274,25.677939521963708,25.883608432952315,s,0,0.47213935700710863,25.831909095984884,None,,,,,,,,,,,,,,,,,,,,,,,,,,,,,,,,,,,,,,,,sic,001,2020_Sep_23_2315,config_feat_task,2020.2.4,None,
9,0,0,0,0,0,9,9,9,,,,,,,,,,,,,,,,,,,26.331649692961946,26.531772286980413,0.20331859262660146,0.5033185926266015,26.84826003498165,27.048776956973597,d,0,0.8228792400332168,27.01513419195544,None,,,,,,,,,,,,,,,,,,,,,,,,,,,,,,,,,,,,,,,,sic,001,2020_Sep_23_2315,config_feat_task,2020.2.4,None,
10,0,0,0,0,0,10,10,10,,,,,,,,,,,,,,,,,,,27.864826052973513,28.065105539979413,0.2026226895977743,0.5026226895977743,28.38163794699358,28.583285808970686,d,0,0.45414273301139474,28.548562267969828,None,,,,,,,,,,,,,,,,,,,,,,,,,,,,,,,,,,,,,,,,sic,001,2020_Sep_23_2315,config_feat_task,2020.2.4,None,
11,0,0,0,0,0,11,11,11,,,,,,,,,,,,,,,,,,,29.031600205984432,29.23215725098271,0.20080423267791048,0.5008042326779105,29.548153526964597,29.751065052987542,d,0,0.6712715019821189,29.71509472996695,None,,,,,,,,,,,,,,,,,,,,,,,,,,,,,,,,,,,,,,,,sic,001,2020_Sep_23_2315,config_feat_task,2020.2.4,None,
12,0,0,0,0,0,12,12,12,,,,,,,,,,,,,,,,,,,30.414911289000884,30.617328177962918,0.21688412566436455,0.5168841256643646,30.94847144698724,31.148650803952478,s,0,1.4164801859878935,31.115349350962788,None,,,,,,,,,,,,,,,,,,,,,,,,,,,,,,,,,,,,,,,,sic,001,2020_Sep_23_2315,config_feat_task,2020.2.4,None,
13,0,0,0,0,0,13,13,13,,,,,,,,,,,,,,,,,,,32.54871014098171,32.74896107497625,0.20448306167963892,0.504483061679639,33.06479675398441,33.265411151980516,d,0,0.5706233780365437,33.23191967298044,None,,,,,,,,,,,,,,,,,,,,,,,,,,,,,,,,,,,,,,,,sic,001,2020_Sep_23_2315,config_feat_task,2020.2.4,None,
14,0,0,0,0,0,14,14,14,,,,,,,,,,,,,,,,,,,33.831747694988735,34.03402352699777,0.19972901762230322,0.4997290176223032,34.36169917497318,34.56542095798068,d,0,0.5177009270410053,34.51699060096871,None,,,,,,,,,,,,,,,,,,,,,,,,,,,,,,,,,,,,,,,,sic,001,2020_Sep_23_2315,config_feat_task,2020.2.4,None,
15,0,0,0,0,0,15,15,15,,,,,,,,,,,,,,,,,,,35.06528075499227,35.26539916096954,0.20225423865485936,0.5022542386548594,35.581561347993556,35.78202143096132,d,0,0.447251130011864,35.74870309996186,None,,,,,,,,,,,,,,,,,,,,,,,,,,,,,,,,,,,,,,,,sic,001,2020_Sep_23_2315,config_feat_task,2020.2.4,None,
16,0,0,0,0,0,16,16,16,,,,,,,,,,,,,,,,,,,36.21503494097851,36.415106860978995,0.2051892927265726,0.5051892927265726,36.731118717987556,36.932042750006076,s,0,0.4115473980200477,36.89864363899687,None,,,,,,,,,,,,,,,,,,,,,,,,,,,,,,,,,,,,,,,,sic,001,2020_Sep_23_2315,config_feat_task,2020.2.4,None,
17,0,0,0,0,0,17,17,17,,,,,,,,,,,,,,,,,,,37.33188572799554,37.53379049600335,0.20364336267812178,0.5036433626781218,37.862388259964064,38.06722299597459,s,0,0.6079975150059909,38.01654185197549,None,,,,,,,,,,,,,,,,,,,,,,,,,,,,,,,,,,,,,,,,sic,001,2020_Sep_23_2315,config_feat_task,2020.2.4,None,
18,0,0,0,0,0,18,18,18,,,,,,,,,,,,,,,,,,,38.64819857897237,38.850443148985505,0.202660737617407,0.502660737617407,39.178298058977816,39.38206491997698,d,0,0.5821492099785246,39.333509457996115,None,,,,,,,,,,,,,,,,,,,,,,,,,,,,,,,,,,,,,,,,sic,001,2020_Sep_23_2315,config_feat_task,2020.2.4,None,
19,0,0,0,0,0,19,19,19,,,,,,,,,,,,,,,,,,,39.931183317967225,40.13341557199601,0.20045731664868072,0.5004573166486808,40.4614528339589,40.665385145985056,d,0,0.41317802702542394,40.61701840895694,None,,,,,,,,,,,,,,,,,,,,,,,,,,,,,,,,,,,,,,,,sic,001,2020_Sep_23_2315,config_feat_task,2020.2.4,None,
20,0,0,0,0,0,20,20,20,,,,,,,,,,,,,,,,,,,41.04868754296331,41.248544903995935,0.20477620465680957,0.5047762046568096,41.57862342899898,41.783595762972254,s,0,0.5213611939689144,41.73210481897695,None,,,,,,,,,,,,,,,,,,,,,,,,,,,,,,,,,,,,,,,,sic,001,2020_Sep_23_2315,config_feat_task,2020.2.4,None,
21,0,0,0,0,0,21,21,21,,,,,,,,,,,,,,,,,,,42.281682640954386,42.482087298005354,0.19969030265929177,0.49969030265929176,42.79840512899682,42.99883365596179,d,0,1.055597956001293,42.965241288999096,None,,,,,,,,,,,,,,,,,,,,,,,,,,,,,,,,,,,,,,,,sic,001,2020_Sep_23_2315,config_feat_task,2020.2.4,None,
22,0,0,0,0,0,22,22,22,,,,,,,,,,,,,,,,,,,44.049110496998765,44.248539499996696,0.19923412462230772,0.4992341246223077,44.56514069798868,44.76703500497388,d,0,0.7471037019859068,44.73188631795347,None,,,,,,,,,,,,,,,,,,,,,,,,,,,,,,,,,,,,,,,,sic,001,2020_Sep_23_2315,config_feat_task,2020.2.4,None,
23,0,0,0,0,0,23,23,23,,,,,,,,,,,,,,,,,,,45.49855200300226,45.700639944989234,0.20272481464780867,0.5027248146478087,46.028288273955695,46.232209699985106,s,0,0.6844988030497916,46.183400367968716,None,,,,,,,,,,,,,,,,,,,,,,,,,,,,,,,,,,,,,,,,sic,001,2020_Sep_23_2315,config_feat_task,2020.2.4,None,
0,0,0,0,0,,,,,0,0,0,0,,,,,,,,,,,,,,,,,,,,,,,,,,46.898671874951106,None,space,1.2268094290047884,46.898671874951106,None,48.189757473999634,48.690498491982,48.7123997049639,48.915287524985615,0.20700689835939556,0.5070068983593956,s,0,0.9139559489558451,48.866908587981015,None,,,,,,,,,,,,,,,,,,,,,,,sic,001,2020_Sep_23_2315,config_feat_task,2020.2.4,None,
1,0,0,0,0,,,,,0,1,1,1,,,,,,,,,,,,,,,,,,,,,,,,,,,,,,,,49.79860467900289,50.000266180955805,50.32837363897124,50.531911475001834,0.2054644186864607,0.5054644186864607,s,0,0.41577182995388284,50.483846691960935,None,,,,,,,,,,,,,,,,,,,,,,,sic,001,2020_Sep_23_2315,config_feat_task,2020.2.4,None,
2,0,0,0,0,,,,,0,2,2,2,,,,,,,,,,,,,,,,,,,,,,,,,,,,,,,,50.93189089297084,51.132341428950895,51.448042223986704,51.65066726697842,0.20033038762630895,0.500330387626309,s,0,0.1923950809868984,51.63233679399127,None,,,,,,,,,,,,,,,,,,,,,,,sic,001,2020_Sep_23_2315,config_feat_task,2020.2.4,None,
3,0,0,0,0,,,,,0,3,3,3,,,,,,,,,,,,,,,,,,,,,,,,,,,,,,,,51.86566189600853,52.0674235689803,52.39512774400646,52.599021785950754,0.2004230247111991,0.5004230247111991,s,0,0.15203820599708706,52.550850615953095,None,,,,,,,,,,,,,,,,,,,,,,,sic,001,2020_Sep_23_2315,config_feat_task,2020.2.4,None,
4,0,0,0,0,,,,,0,4,4,4,,,,,,,,,,,,,,,,,,,,,,,,,,,,,,,,52.748662589991,52.95091735897586,53.27914779697312,53.482374020968564,0.21237018529791385,0.5123701852979139,s,0,0.3913120389916003,53.43384197197156,None,,,,,,,,,,,,,,,,,,,,,,,sic,001,2020_Sep_23_2315,config_feat_task,2020.2.4,None,
5,0,0,0,0,,,,,0,5,5,5,,,,,,,,,,,,,,,,,,,,,,,,,,,,,,,,53.867445146956015,54.06565447099274,54.38174040598096,54.58237872598693,0.21408771065762267,0.5140877106576227,d,0,0.09110948099987581,54.54898853698978,None,,,,,,,,,,,,,,,,,,,,,,,sic,001,2020_Sep_23_2315,config_feat_task,2020.2.4,None,
6,0,0,0,0,,,,,0,6,6,6,,,,,,,,,,,,,,,,,,,,,,,,,,,,,,,,54.66559867397882,54.86693881097017,55.19489621196408,55.39868798898533,0.20066583261359483,0.5006658326135949,d,0,0.13558977999491617,55.35080208798172,None,,,,,,,,,,,,,,,,,,,,,,,sic,001,2020_Sep_23_2315,config_feat_task,2020.2.4,None,
7,0,0,0,0,,,,,0,7,7,7,,,,,,,,,,,,,,,,,,,,,,,,,,,,,,,,55.51515642000595,55.71711884398246,56.04868804500438,None,0.21667765564052388,0.5166776556405239,d,0,0.021655315009411424,56.199181133008096,None,,,,,,,,,,,,,,,,,,,,,,,sic,001,2020_Sep_23_2315,config_feat_task,2020.2.4,None,
8,0,0,0,0,,,,,0,8,8,8,,,,,,,,,,,,,,,,,,,,,,,,,,,,,,,,56.24829873396084,56.4489868870005,56.76526359998388,56.965635627973825,0.20005675667198375,0.5000567566719838,s,0,0.09525073698023334,56.931994107959326,None,,,,,,,,,,,,,,,,,,,,,,,sic,001,2020_Sep_23_2315,config_feat_task,2020.2.4,None,
9,0,0,0,0,,,,,0,9,9,9,,,,,,,,,,,,,,,,,,,,,,,,,,,,,,,,57.048927833966445,57.25060403300449,57.5785423250054,57.78392661095131,0.20952354569453746,0.5095235456945375,d,0,0.40023430401925,57.73240161896683,None,,,,,,,,,,,,,,,,,,,,,,,sic,001,2020_Sep_23_2315,config_feat_task,2020.2.4,None,
10,0,0,0,0,,,,,0,10,10,10,,,,,,,,,,,,,,,,,,,,,,,,,,,,,,,,58.14851849997649,58.350849138980266,58.67746700596763,58.884196323982906,0.19942255766363814,0.49942255766363813,d,0,2.038686661981046,58.83155855699442,None,,,,,,,,,,,,,,,,,,,,,,,sic,001,2020_Sep_23_2315,config_feat_task,2020.2.4,None,
11,0,0,0,0,,,,,0,11,11,11,,,,,,,,,,,,,,,,,,,,,,,,,,,,,,,,60.91724959400017,61.42417657299666,61.44560814695433,61.64853438298451,0.21038875164231285,0.5103887516423129,s,0,0.6427953829988837,61.6007078079856,None,,,,,,,,,,,,,,,,,,,,,,,sic,001,2020_Sep_23_2315,config_feat_task,2020.2.4,None,
12,0,0,0,0,,,,,0,12,12,12,,,,,,,,,,,,,,,,,,,,,,,,,,,,,,,,62.26534292096039,62.46766837098403,62.79456635500537,62.99924961896613,0.20112401462392882,0.5011240146239289,s,0,0.452624743047636,62.95064002595609,None,,,,,,,,,,,,,,,,,,,,,,,sic,001,2020_Sep_23_2315,config_feat_task,2020.2.4,None,
13,0,0,0,0,,,,,0,13,13,13,,,,,,,,,,,,,,,,,,,,,,,,,,,,,,,,63.45081582997227,63.94863421696937,63.94863421696937,64.15057754999725,0.1990613826783374,0.4990613826783374,d,0,0.4535112059675157,64.13237260398455,None,,,,,,,,,,,,,,,,,,,,,,,sic,001,2020_Sep_23_2315,config_feat_task,2020.2.4,None,
14,0,0,0,0,,,,,0,14,14,14,,,,,,,,,,,,,,,,,,,,,,,,,,,,,,,,64.63381300598849,65.14059937099228,65.16201158595504,65.36565110698575,0.21215849264990538,0.5121584926499054,d,0,0.5710522629669867,65.31715360598173,None,,,,,,,,,,,,,,,,,,,,,,,sic,001,2020_Sep_23_2315,config_feat_task,2020.2.4,None,
15,0,0,0,0,,,,,0,15,15,15,,,,,,,,,,,,,,,,,,,,,,,,,,,,,,,,65.91550340899266,66.11750109697459,66.44506378198275,66.64895374898333,0.20261891069822013,0.5026189106982202,d,0,0.7190009870100766,66.60089304298162,None,,,,,,,,,,,,,,,,,,,,,,,sic,001,2020_Sep_23_2315,config_feat_task,2020.2.4,None,
16,0,0,0,0,,,,,0,16,16,16,,,,,,,,,,,,,,,,,,,,,,,,,,,,,,,,67.34863819397287,67.54928020498483,67.86515816499013,68.06557251396589,0.2005192346405238,0.5005192346405238,s,0,0.5555573760066181,68.03245800698642,None,,,,,,,,,,,,,,,,,,,,,,,sic,001,2020_Sep_23_2315,config_feat_task,2020.2.4,None,
17,0,0,0,0,,,,,0,17,17,17,,,,,,,,,,,,,,,,,,,,,,,,,,,,,,,,68.61522906995378,68.81591477699112,69.13211722200504,69.33460538397776,0.20060252863913774,0.5006025286391378,s,0,0.40094256500015035,69.31601271696854,None,,,,,,,,,,,,,,,,,,,,,,,sic,001,2020_Sep_23_2315,config_feat_task,2020.2.4,None,
18,0,0,0,0,,,,,0,18,18,18,,,,,,,,,,,,,,,,,,,,,,,,,,,,,,,,69.76753217796795,69.96533778798766,70.28209603397409,70.48233288200572,0.21450722962617874,0.5145072296261788,d,0,0.1711813419824466,70.44920053699752,None,,,,,,,,,,,,,,,,,,,,,,,sic,001,2020_Sep_23_2315,config_feat_task,2020.2.4,None,
19,0,0,0,0,,,,,0,19,19,19,,,,,,,,,,,,,,,,,,,,,,,,,,,,,,,,70.64842826698441,70.84889263397781,71.16504266200354,71.36554107296979,0.199475331697613,0.499475331697613,s,0,0.09172759699868038,71.33202777896076,None,,,,,,,,,,,,,,,,,,,,,,,sic,001,2020_Sep_23_2315,config_feat_task,2020.2.4,None,
20,0,0,0,0,,,,,0,20,20,20,,,,,,,,,,,,,,,,,,,,,,,,,,,,,,,,71.44887143600499,71.64865387399914,71.96534312597942,72.16523398697609,0.2004171356675215,0.5004171356675216,d,0,0.08558749099029228,72.13175129296724,None,,,,,,,,,,,,,,,,,,,,,,,sic,001,2020_Sep_23_2315,config_feat_task,2020.2.4,None,
21,0,0,0,0,,,,,0,21,21,21,,,,,,,,,,,,,,,,,,,,,,,,,,,,,,,,72.23177604196826,72.43234705796931,72.74870137497783,72.94892937300028,0.20097813667962328,0.5009781366796233,s,0,0.18526393797947094,72.91546137398109,None,,,,,,,,,,,,,,,,,,,,,,,sic,001,2020_Sep_23_2315,config_feat_task,2020.2.4,None,
22,0,0,0,0,,,,,0,22,22,22,,,,,,,,,,,,,,,,,,,,,,,,,,,,,,,,73.131775818998,73.33221346896607,73.64846471097553,73.84998340898892,0.19953014265047386,0.49953014265047385,d,0,0.014181473001372069,73.83207333897008,None,,,,,,,,,,,,,,,,,,,,,,,sic,001,2020_Sep_23_2315,config_feat_task,2020.2.4,None,
23,0,0,0,0,,,,,0,23,23,23,,,,,,,,,,,,,,,,,,,,,,,,,,,,,,,,73.86497314996086,74.06535132898716,74.38198847899912,74.58403018297395,0.20910876867128536,0.5091087686712854,s,0,0.23108630400383845,74.55055392999202,None,,,,,,,,,,,,,,,,,,,,,,,sic,001,2020_Sep_23_2315,config_feat_task,2020.2.4,None,
0,0,0,0,0,,,,,,,,,0,0,0,0,,,,,74.79906730400398,None,space,1.8042013649828732,74.79906730400398,None,,,,,,,,,,,,,,,,,,,,,,,,,,,,,76.64858681999613,76.85064704698743,77.17906069295714,77.38226056197891,0.2095917803235352,0.5095917803235352,d,0,0.6849271690007299,77.33401163300732,None,,,,,,,,,,,,sic,001,2020_Sep_23_2315,config_feat_task,2020.2.4,None,
1,0,0,0,0,,,,,,,,,0,1,1,1,,,,,,,,,,,,,,,,,,,,,,,,,,,,,,,,,,,,,,,78.06564811198041,78.26703575998545,78.59527310699923,78.80069529096363,0.21360920736333355,0.5136092073633336,d,0,0.9041024580365047,78.74910147499759,None,,,,,,,,,,,,sic,001,2020_Sep_23_2315,config_feat_task,2020.2.4,None,
2,0,0,0,0,,,,,,,,,0,2,2,2,,,,,,,,,,,,,,,,,,,,,,,,,,,,,,,,,,,,,,,79.70052150695119,80.20741014298983,80.22881696396507,80.43407084798673,0.20760034664999694,0.507600346649997,s,0,0.2534963579964824,80.38206007995177,None,,,,,,,,,,,,sic,001,2020_Sep_23_2315,config_feat_task,2020.2.4,None,
3,0,0,0,0,,,,,,,,,0,3,3,3,,,,,,,,,,,,,,,,,,,,,,,,,,,,,,,,,,,,,,,80.66540426400024,80.8673365059658,81.19474994199118,81.39906377100851,0.2036760826013051,0.5036760826013051,s,0,0.8020625580102205,81.35109746200033,None,,,,,,,,,,,,sic,001,2020_Sep_23_2315,config_feat_task,2020.2.4,None,
4,0,0,0,0,,,,,,,,,0,4,4,4,,,,,,,,,,,,,,,,,,,,,,,,,,,,,,,,,,,,,,,82.1827721800073,82.38241942296736,82.72916625899961,82.93255509698065,0.21154792670859024,0.5115479267085903,d,0,0.14075885998317972,82.88442199997371,None,,,,,,,,,,,,sic,001,2020_Sep_23_2315,config_feat_task,2020.2.4,None,
5,0,0,0,0,,,,,,,,,0,5,5,5,,,,,,,,,,,,,,,,,,,,,,,,,,,,,,,,,,,,,,,83.04957716399804,83.24896642699605,83.59460566897178,83.80103609600337,0.2115308817010373,0.5115308817010373,d,0,0.7761574330506846,83.74898269795813,None,,,,,,,,,,,,sic,001,2020_Sep_23_2315,config_feat_task,2020.2.4,None,
6,0,0,0,0,,,,,,,,,0,6,6,6,,,,,,,,,,,,,,,,,,,,,,,,,,,,,,,,,,,,,,,84.56760510895401,85.07414128497476,85.09518672799459,85.29934264696203,0.2022471316740848,0.5022471316740849,s,0,0.23141480097547174,85.25103940995177,None,,,,,,,,,,,,sic,001,2020_Sep_23_2315,config_feat_task,2020.2.4,None,
7,0,0,0,0,,,,,,,,,0,7,7,7,,,,,,,,,,,,,,,,,,,,,,,,,,,,,,,,,,,,,,,85.49901343800593,85.70069104700815,86.02870981098386,86.23435745597817,0.2028069746447727,0.5028069746447728,s,0,0.5677289260202087,86.18340922397329,None,,,,,,,,,,,,sic,001,2020_Sep_23_2315,config_feat_task,2020.2.4,None,
8,0,0,0,0,,,,,,,,,0,8,8,8,,,,,,,,,,,,,,,,,,,,,,,,,,,,,,,,,,,,,,,86.78404187696287,87.29100740299327,87.31258269696264,87.51603727799375,0.21008404664462432,0.5100840466446244,d,0,0.2124255240196362,87.46756829798687,None,,,,,,,,,,,,sic,001,2020_Sep_23_2315,config_feat_task,2020.2.4,None,
9,0,0,0,0,,,,,,,,,0,9,9,9,,,,,,,,,,,,,,,,,,,,,,,,,,,,,,,,,,,,,,,87.69905392598594,87.89906302496092,88.21554715500679,88.41587043000618,0.20547462260583416,0.5054746226058342,s,0,0.14912091701989993,88.3827432509861,None,,,,,,,,,,,,sic,001,2020_Sep_23_2315,config_feat_task,2020.2.4,None,
10,0,0,0,0,,,,,,,,,0,10,10,10,,,,,,,,,,,,,,,,,,,,,,,,,,,,,,,,,,,,,,,88.54904264397919,88.75103474396747,89.07840928895166,89.28270868695108,0.20223179663298652,0.5022317966329866,d,0,0.6936893400270492,89.2345968929585,None,,,,,,,,,,,,sic,001,2020_Sep_23_2315,config_feat_task,2020.2.4,None,
11,0,0,0,0,,,,,,,,,0,11,11,11,,,,,,,,,,,,,,,,,,,,,,,,,,,,,,,,,,,,,,,89.94918704696465,90.14905715797795,90.49534315796336,90.69906758796424,0.21147265465697274,0.5114726546569728,s,0,0.4989426619722508,90.6505323809688,None,,,,,,,,,,,,sic,001,2020_Sep_23_2315,config_feat_task,2020.2.4,None,
12,0,0,0,0,,,,,,,,,0,12,12,12,,,,,,,,,,,,,,,,,,,,,,,,,,,,,,,,,,,,,,,91.18265162297757,91.38426613097545,91.71174726396566,91.9155436809524,0.2008095397031866,0.5008095397031866,d,0,0.13936722197104245,91.86761727998964,None,,,,,,,,,,,,sic,001,2020_Sep_23_2315,config_feat_task,2020.2.4,None,
13,0,0,0,0,,,,,,,,,0,13,13,13,,,,,,,,,,,,,,,,,,,,,,,,,,,,,,,,,,,,,,,92.0323470509611,92.23426613298943,92.56201838096604,92.76838525600033,0.20152853662148118,0.5015285366214812,d,0,0.0939433469902724,92.7175221889629,None,,,,,,,,,,,,sic,001,2020_Sep_23_2315,config_feat_task,2020.2.4,None,
14,0,0,0,0,,,,,,,,,0,14,14,14,,,,,,,,,,,,,,,,,,,,,,,,,,,,,,,,,,,,,,,92.84931078198133,93.04902000696165,93.3652272769832,93.5656098749605,0.20345659868326038,0.5034565986832604,d,0,0.14300546800950542,93.53276421298506,None,,,,,,,,,,,,sic,001,2020_Sep_23_2315,config_feat_task,2020.2.4,None,
15,0,0,0,0,,,,,,,,,0,15,15,15,,,,,,,,,,,,,,,,,,,,,,,,,,,,,,,,,,,,,,,93.69898791296873,93.89906902995426,94.21535054798005,94.41570452600718,0.20190957566956058,0.5019095756695606,d,0,0.153388676000759,94.38267464097589,None,,,,,,,,,,,,sic,001,2020_Sep_23_2315,config_feat_task,2020.2.4,None,
16,0,0,0,0,,,,,,,,,0,16,16,16,,,,,,,,,,,,,,,,,,,,,,,,,,,,,,,,,,,,,,,94.56618224200793,94.76602490700316,95.11278545198729,95.3159573529847,0.21395634167129174,0.5139563416712918,s,0,1.1102592119714245,95.26763835496968,None,,,,,,,,,,,,sic,001,2020_Sep_23_2315,config_feat_task,2020.2.4,None,
17,0,0,0,0,,,,,,,,,0,17,17,17,,,,,,,,,,,,,,,,,,,,,,,,,,,,,,,,,,,,,,,96.39887018100126,96.59947274095612,96.91561058996012,97.11599963298067,0.2060781316831708,0.5060781316831708,d,0,0.3369946039747447,97.08281033398816,None,,,,,,,,,,,,sic,001,2020_Sep_23_2315,config_feat_task,2020.2.4,None,
18,0,0,0,0,,,,,,,,,0,18,18,18,,,,,,,,,,,,,,,,,,,,,,,,,,,,,,,,,,,,,,,97.44875821995083,97.64913449896267,97.9654393029632,98.16585120500531,0.2002865916583687,0.5002865916583688,d,0,0.08067367901094258,98.13276881497586,None,,,,,,,,,,,,sic,001,2020_Sep_23_2315,config_feat_task,2020.2.4,None,
19,0,0,0,0,,,,,,,,,0,19,19,19,,,,,,,,,,,,,,,,,,,,,,,,,,,,,,,,,,,,,,,98.23235265800031,98.43264627095778,98.74866283900337,98.95103561499855,0.2046968027134426,0.5046968027134426,d,0,0.435934093024116,98.91734699800145,None,,,,,,,,,,,,sic,001,2020_Sep_23_2315,config_feat_task,2020.2.4,None,
20,0,0,0,0,,,,,,,,,0,20,20,20,,,,,,,,,,,,,,,,,,,,,,,,,,,,,,,,,,,,,,,99.38199498696486,99.58263486198848,99.89854489499703,100.10120067198295,0.20175680360989645,0.5017568036098965,s,0,0.13208848499925807,100.06762764498126,None,,,,,,,,,,,,sic,001,2020_Sep_23_2315,config_feat_task,2020.2.4,None,
21,0,0,0,0,,,,,,,,,0,21,21,21,,,,,,,,,,,,,,,,,,,,,,,,,,,,,,,,,,,,,,,100.23429123399546,100.43246486398857,100.74882604496088,100.95074334996752,0.21092560066608712,0.5109256006660872,s,0,0.11089848098345101,100.9183784199995,None,,,,,,,,,,,,sic,001,2020_Sep_23_2315,config_feat_task,2020.2.4,None,
22,0,0,0,0,,,,,,,,,0,22,22,22,,,,,,,,,,,,,,,,,,,,,,,,,,,,,,,,,,,,,,,101.04912216897355,101.2508733549621,101.56529838999268,101.76749151299009,0.20434010564349592,0.504340105643496,d,0,0.07676358096068725,101.73433263495099,None,,,,,,,,,,,,sic,001,2020_Sep_23_2315,config_feat_task,2020.2.4,None,
23,0,0,0,0,,,,,,,,,0,23,23,23,,,,,,,,,,,,,,,,,,,,,,,,,,,,,,,,,,,,,,,101.85101531399414,102.35737526696175,102.3785944149713,102.58441285399022,0.2096373206586577,0.5096373206586577,s,0,0.13473385100951418,102.53287813696079,None,,,,,,,,,,,,sic,001,2020_Sep_23_2315,config_feat_task,2020.2.4,None,
0,0,0,0,0,,,,,,,,,,,,,0,0,0,0,,,,,,,,,,,,,,,,,,102.68248633097392,None,space,1.416679038957227,102.68248633097392,None,,,,,,,,,,,,,,,,,,,,,,,104.13202179298969,104.33446423895657,104.66264335997403,104.86760628398042,0.21042329131159931,0.5104232913115994,d,0,0.6505740390275605,104.81622625497403,None,sic,001,2020_Sep_23_2315,config_feat_task,2020.2.4,None,
1,0,0,0,0,,,,,,,,,,,,,0,1,1,1,,,,,,,,,,,,,,,,,,,,,,,,,,,,,,,,,,,,,,,,,,,,,,105.48201042495202,105.68454812699929,106.01559351698961,106.21562989498489,0.21655107766855508,0.5165510776685551,s,0,0.375396391027607,106.18282041797647,None,sic,001,2020_Sep_23_2315,config_feat_task,2020.2.4,None,
2,0,0,0,0,,,,,,,,,,,,,0,2,2,2,,,,,,,,,,,,,,,,,,,,,,,,,,,,,,,,,,,,,,,,,,,,,,106.58256772498135,106.78277258999879,107.09908352198545,107.29926474095555,0.19928621465805918,0.49928621465805917,d,0,0.2461206080042757,107.28254900098545,None,sic,001,2020_Sep_23_2315,config_feat_task,2020.2.4,None,
3,0,0,0,0,,,,,,,,,,,,,0,3,3,3,,,,,,,,,,,,,,,,,,,,,,,,,,,,,,,,,,,,,,,,,,,,,,107.54946107597789,107.7492191309575,108.06546777795302,108.2677582539618,0.21132005366962403,0.5113200536696241,d,0,0.45060689601814374,108.23420747899218,None,sic,001,2020_Sep_23_2315,config_feat_task,2020.2.4,None,
4,0,0,0,0,,,,,,,,,,,,,0,4,4,4,,,,,,,,,,,,,,,,,,,,,,,,,,,,,,,,,,,,,,,,,,,,,,108.73418630898232,109.24099808896426,109.26198325795121,109.46629011596087,0.20750138571020216,0.5075013857102022,d,0,0.28224479901837185,109.41541278699879,None,sic,001,2020_Sep_23_2315,config_feat_task,2020.2.4,None,
5,0,0,0,0,,,,,,,,,,,,,0,5,5,5,,,,,,,,,,,,,,,,,,,,,,,,,,,,,,,,,,,,,,,,,,,,,,109.71591241698479,109.91745031997561,110.24617182195652,110.44962648797082,0.20663906168192625,0.5066390616819263,s,0,0.03466648998437449,110.40103952796198,None,sic,001,2020_Sep_23_2315,config_feat_task,2020.2.4,None,
6,0,0,0,0,,,,,,,,,,,,,0,6,6,6,,,,,,,,,,,,,,,,,,,,,,,,,,,,,,,,,,,,,,,,,,,,,,110.46539683197625,110.66618075798033,110.98212392395362,111.1840431370074,0.1995720416889526,0.4995720416889526,d,0,0.8755031870095991,111.16572893300327,None,sic,001,2020_Sep_23_2315,config_feat_task,2020.2.4,None,
7,0,0,0,0,,,,,,,,,,,,,0,7,7,7,,,,,,,,,,,,,,,,,,,,,,,,,,,,,,,,,,,,,,,,,,,,,,112.06551323196618,112.2657672429923,112.58201009297045,112.78427948098397,0.20519019867060706,0.5051901986706071,d,0,0.07239781401585788,112.7487114929827,None,sic,001,2020_Sep_23_2315,config_feat_task,2020.2.4,None,
