trialNum,runs.thisRepN,runs.thisTrialN,runs.thisN,runs.thisIndex,feat_face_loop.thisRepN,feat_face_loop.thisTrialN,feat_face_loop.thisN,feat_face_loop.thisIndex,conf_haus_loop.thisRepN,conf_haus_loop.thisTrialN,conf_haus_loop.thisN,conf_haus_loop.thisIndex,face_instructions.started,face_instructions.stopped,start_exp_press.keys,start_exp_press.rt,start_exp_press.started,start_exp_press.stopped,target_image1.started,target_image1.stopped,ISI_1.started,ISI_1.stopped,probe_image1.started,probe_image1.stopped,key_resp.keys,key_resp.corr,key_resp.rt,key_resp.started,key_resp.stopped,haus_instructions.started,haus_instructions.stopped,start_run2.keys,start_run2.rt,start_run2.started,start_run2.stopped,target_image2.started,target_image2.stopped,probe_image2.started,probe_image2.stopped,ISI_2.started,ISI_2.stopped,participant,session,date,expName,psychopyVersion,frameRate,
0,0,0,0,0,0,0,0,0,,,,,15.063679279992357,None,space,1.138702085998375,15.063679279992357,None,16.266395325015765,16.760202092991676,0.2115823479834944,0.5115823479834944,16.782512232020963,16.986966318043415,d,0,0.8540541660040617,16.935397965018637,None,,,,,,,,,,,,,test,001,2020_Sep_24_0159,config_feat_task,2020.2.4,None,
1,0,0,0,0,0,1,1,1,,,,,,,,,,,17.837110357009806,18.035379610024393,0.21449834865052253,0.5144983486505226,18.351794227026403,18.552175754040945,s,0,0.35617805196670815,18.518878079019487,None,,,,,,,,,,,,,test,001,2020_Sep_24_0159,config_feat_task,2020.2.4,None,
2,0,0,0,0,0,2,2,2,,,,,,,,,,,18.902012010046747,19.102070202992763,0.2044430476380512,0.5044430476380513,19.418438763008453,19.62079758802429,d,0,0.3737261260394007,19.587310577044263,None,,,,,,,,,,,,,test,001,2020_Sep_24_0159,config_feat_task,2020.2.4,None,
3,0,0,0,0,0,3,3,3,,,,,,,,,,,19.985300783999264,20.185729620046914,0.20278849062742665,0.5027884906274267,20.501704721013084,20.702028753003106,s,0,0.35896673100069165,20.669040025037248,None,,,,,,,,,,,,,test,001,2020_Sep_24_0159,config_feat_task,2020.2.4,None,
4,0,0,0,0,0,4,4,4,,,,,,,,,,,21.051944662001915,21.25211154099088,0.20242068369407207,0.5024206836940721,21.568490323028527,21.77071720903041,s,0,0.570932256989181,21.73589323303895,None,,,,,,,,,,,,,test,001,2020_Sep_24_0159,config_feat_task,2020.2.4,None,
5,0,0,0,0,0,5,5,5,,,,,,,,,,,22.354123155993875,22.85202253900934,0.20389922865433618,0.5038992286543362,22.85202253900934,23.052426367008593,d,0,0.4650003020069562,23.018927714030724,None,,,,,,,,,,,,,test,001,2020_Sep_24_0159,config_feat_task,2020.2.4,None,
6,0,0,0,0,0,6,6,6,,,,,,,,,,,23.50248735700734,23.704111461003777,0.2035945356474258,0.5035945356474258,24.031848339014687,24.237251421029214,d,0,0.42877511301776394,24.1857736990205,None,,,,,,,,,,,,,test,001,2020_Sep_24_0159,config_feat_task,2020.2.4,None,
7,0,0,0,0,0,7,7,7,,,,,,,,,,,24.635427586035803,24.835475166037213,0.20717673766193911,0.5071767376619392,25.15190428600181,25.3520797220408,s,0,0.4507545829983428,25.31907086103456,None,,,,,,,,,,,,,test,001,2020_Sep_24_0159,config_feat_task,2020.2.4,None,
8,0,0,0,0,0,8,8,8,,,,,,,,,,,25.785075988038443,25.98568865301786,0.20206498663173988,0.5020649866317399,26.302040116046555,26.50209318200359,s,0,0.5838624599855393,26.46903633204056,None,,,,,,,,,,,,,test,001,2020_Sep_24_0159,config_feat_task,2020.2.4,None,
9,0,0,0,0,0,9,9,9,,,,,,,,,,,27.085900641046464,27.28556526399916,0.1994961386662908,0.4994961386662908,27.61586724902736,27.818935802031774,s,0,0.522214321012143,27.785898661997635,None,,,,,,,,,,,,,test,001,2020_Sep_24_0159,config_feat_task,2020.2.4,None,
10,0,0,0,0,0,10,10,10,,,,,,,,,,,28.35405590600567,28.552222088037524,0.21520598063943908,0.5152059806394391,28.868619275046512,29.071014732995536,d,0,0.7806560120079666,29.03735094104195,None,,,,,,,,,,,,,test,001,2020_Sep_24_0159,config_feat_task,2020.2.4,None,
11,0,0,0,0,0,11,11,11,,,,,,,,,,,29.83511076204013,30.035901178023778,0.20647162367822602,0.5064716236782261,30.351864206022583,30.552238111034967,d,0,0.5569781539961696,30.51905036700191,None,,,,,,,,,,,,,test,001,2020_Sep_24_0159,config_feat_task,2020.2.4,None,
12,0,0,0,0,0,12,12,12,,,,,,,,,,,31.102103120007087,31.302040722046513,0.20468903466826305,0.5046890346682631,31.61861398804467,31.82081902801292,s,0,0.24679296999238431,31.787484279018827,None,,,,,,,,,,,,,test,001,2020_Sep_24_0159,config_feat_task,2020.2.4,None,
13,0,0,0,0,0,13,13,13,,,,,,,,,,,32.052197844022885,32.25414932001149,0.20375141664408147,0.5037514166440815,32.582002536044456,32.787417982995976,d,0,0.49129068496404216,32.73547278699698,None,,,,,,,,,,,,,test,001,2020_Sep_24_0159,config_feat_task,2020.2.4,None,
14,0,0,0,0,0,14,14,14,,,,,,,,,,,33.251597697031684,33.45240475499304,0.19961191370384768,0.49961191370384767,33.78138284699526,33.98748643003637,s,0,0.4984593370463699,33.9357056299923,None,,,,,,,,,,,,,test,001,2020_Sep_24_0159,config_feat_task,2020.2.4,None,
15,0,0,0,0,0,15,15,15,,,,,,,,,,,34.45250530104386,34.65211912803352,0.20607087068492547,0.5060708706849255,34.96864450600697,35.170803915010765,d,0,0.3685385930002667,35.13744319102261,None,,,,,,,,,,,,,test,001,2020_Sep_24_0159,config_feat_task,2020.2.4,None,
16,0,0,0,0,0,16,16,16,,,,,,,,,,,35.53519140399294,35.735672423033975,0.20212648465530947,0.5021264846553095,36.051970846019685,36.252113024005666,d,0,0.03635969199240208,36.21880162600428,None,,,,,,,,,,,,,test,001,2020_Sep_24_0159,config_feat_task,2020.2.4,None,
17,0,0,0,0,0,17,17,17,,,,,,,,,,,36.28514011099469,36.48530224600108,0.20227542862994596,0.502275428629946,36.80210704199271,37.00390336901182,s,0,0.29628934600623325,36.970769951003604,None,,,,,,,,,,,,,test,001,2020_Sep_24_0159,config_feat_task,2020.2.4,None,
18,0,0,0,0,0,18,18,18,,,,,,,,,,,37.28524376603309,37.485452281020116,0.20246842864435166,0.5024684286443517,37.81533983303234,38.01888272102224,s,0,0.2586846579797566,37.97065031499369,None,,,,,,,,,,,,,test,001,2020_Sep_24_0159,config_feat_task,2020.2.4,None,
19,0,0,0,0,0,19,19,19,,,,,,,,,,,38.25192014302593,38.45191103499383,0.20504728966625407,0.5050472896662541,38.76857206702698,38.969008341024164,d,0,0.5535164349712431,38.93571181700099,None,,,,,,,,,,,,,test,001,2020_Sep_24_0159,config_feat_task,2020.2.4,None,
20,0,0,0,0,0,20,20,20,,,,,,,,,,,39.5188835770241,39.71895339404,0.20014732965501025,0.5001473296550103,40.03541911899811,40.235554556013085,s,0,0.11408882105024531,40.20216625503963,None,,,,,,,,,,,,,test,001,2020_Sep_24_0159,config_feat_task,2020.2.4,None,
21,0,0,0,0,0,21,21,21,,,,,,,,,,,40.335318575031124,40.53564027004177,0.20077458070591092,0.500774580705911,40.851944221998565,41.052075435000006,d,0,0.8863963049952872,41.01931986503769,None,,,,,,,,,,,,,test,001,2020_Sep_24_0159,config_feat_task,2020.2.4,None,
22,0,0,0,0,0,22,22,22,,,,,,,,,,,41.9348284570151,42.13564018800389,0.2022561386693269,0.502256138669327,42.45218850701349,42.65235499001574,s,0,0.9544834310072474,42.61902689799899,None,,,,,,,,,,,,,test,001,2020_Sep_24_0159,config_feat_task,2020.2.4,None,
23,0,0,0,0,0,23,23,23,,,,,,,,,,,43.60281232604757,43.80401315103518,0.21552198572317138,0.5155219857231714,44.134884110011626,44.33539522701176,d,0,0.06147611100459471,44.30267432000255,None,,,,,,,,,,,,,test,001,2020_Sep_24_0159,config_feat_task,2020.2.4,None,
0,0,0,0,0,,,,,0,0,0,0,,,,,,,,,,,,,s,0,0.26807449298212305,46.020566031045746,None,44.38575557799777,None,space,0.9138888999586925,44.38575557799777,None,45.335597567027435,45.535560968040954,45.85199288802687,46.05433312704554,0.20827714662300423,0.5082771466230043,test,001,2020_Sep_24_0159,config_feat_task,2020.2.4,None,
